associateResp,associateRT,Prime,Target,AssociateRelationshipW1,AssociateRelationshipW2,Relationship,Proc,UndirectedNN,UndirectedPath,undirected_score,DirectedInOut,DirectedOutIn,DirectedOutOut,D12Path,D21Path,D12_score,D21_score,ACNPath,ACNNN,ACN_score,practrials.order,ACNcosine,LSAcosine,word2veccosines,Directed12,Directed21,ACN,Undirected,UPMFG,UPMFGPath,Dominant,Category,NoAttributive,NoArgument,NoCoordinate,NoLocative,NoTemporal,NoOther,word2vecNN,participant,session,date,expName,psychopyVersion,frameRate,key_resp_5.keys,key_resp_5.rt,trials.thisRepN,trials.thisTrialN,trials.thisN,trials.thisIndex,trials.ran,trials.order,Rand,LSAnn,LSA_score,word2vecCluePrime,word2vecClueTarget,UndirectedACC,ACNACC,Directed12ACC,Directed21ACC,LSAACC,word2vecACC,UndirectedNNacc,ACNNNacc,DirectedNNacc1,DirectedNNacc2,DirectedNNacc3,wordpair,GloveNN,fastTextNN,glove_score,fastText_score,word2vec_score,fastText,fastText_W1C1,fastText_W2C1,word2vec,word2vec_W1C1,word2vec_W2C1,glove,glove_W1C1,glove_W2C1
cut,2353,SCISSORS,HAIR,argument,argument,argument,S1,"CLIPPERS,CUT,HAIRCUT,SHEARS,TRIM,TWEEZERS","scissors,tweezers,hair",1,CUT,CUT,CUT,"scissors,cut,hair","hair,cut,scissors",1,1,"scissors,operation,infection,flu,kleenex,sob,upset,glad,cheerful,amuse,silly,foolish,intelligent,intellect,learn,lesson,student,profession,occupation,pay,debt,expense,expensive,jewel,pebble,waves,tide,laundry,hamper,halt,pedal,petals,violet,yellow,shade,squint,eyeball,hair",,0,,0.114,0.26,0.332003117,2,2,37,2,18,"scissors,paper,printing,book,hymn,protestant,christian,truthful,gourmet,food,seasoning,tomato,berry,orchard,tree,lumber,jigsaw,shears,hair",argument,instrument,3,42,3,0,1,1,"tresses, pinking_shears, clippers, ponytail, electric_clippers",AA,1,2019-10-28_00h36.39.041,CodenamesAssociation,3.1.5,60,r,18.44099998,1,0,100,24,1,99,0.323109459,"scalp, shampooed, shampoo, predried, overdressing, detangling",0,0.27476728,0.13419802,0,0,1,1,0,0,1,1,1,1,1,SCISSORS-HAIR,"blond, beard, knife, teeth, tweezers","wig, fingernails, shears, ponytail, straighteners",0,0,0,0.492084354,0.472403288,0.427970618,0.406021565,0.477402359,0.335640788,0.325424612,0.272412539,0.304036796
tree,6098,BIRD,NEST,locative,locative,locative ,S1,"EAGLE,HAVEN,ROBIN,ROOST,SPARROW","bird,nest",0,,"EAGLE,ROBIN",,"bird,nest","nest,bird",0,0,"bird,wings,swan,lily,orchid,seed,pasture,rooster,roost,nest",,0,,-0.000917,0.78,0.481300563,1,1,9,1,10,"bird,canary,robin,tulip,orchard,tree,lumber,cabin,tent,roost,nest",locative ,animal,2,1,2,45,0,0,"osprey, raptor, squirrel, robin, killdeer",AA,1,2019-10-28_00h36.39.041,CodenamesAssociation,3.1.5,60,,,1,0,100,71,1,99,0.026043807,"preen, feathers, beak, eagle, turtledove",0,0.36190298,0.30836225,0,0,0,0,0,0,0,0,0,0,0,BIRD-NEST,"eggs, species, migratory, breeding, avian","avian, sparrow, kestrel, feathers, pigeon",0,0,0,0.555869579,0.502509475,0.466070861,0.45648858,0.369710982,0.379576504,0.337469637,0.269479305,0.322528213
school,4218,STUDENT,TEACHER,locative,locative,coordinate,S1,"BOOK,CLASS,DESK,EDUCATE,EDUCATION,FACULTY,INSTRUCTOR,LEARNER,PROFESSOR,PUPIL,SCHOOL,TEACH","student,teacher",1,"CLASS,INSTRUCTOR,PROFESSOR,SCHOOL,TEACH","CLASS,EDUCATION,LEARNER,PROFESSOR,PUPIL,SCHOOL","BOOK,CLASS,PROFESSOR,SCHOOL","student,teacher","teacher,student",1,1,"student,lesson,educate,teacher",,0,,0.245029,0.74,0.630136609,1,1,3,1,12,"student,educate,fee,money,million,plenty,bouillon,food,gourmet,good,recommend,assist,teacher",coordinate,people,0,6,43,1,0,0,"school, elementary, pupil, guidance_counselor, classroom",AA,1,2019-10-28_00h36.39.041,CodenamesAssociation,3.1.5,60,,,1,0,100,48,1,99,0.831841844,"classroom, seatwork, rosenshine, facilitator, teaching",0,0.6055627,0.6382406,0,0,0,0,0,1,1,0,1,1,1,STUDENT-TEACHER,"school, graduate, education, classroom, faculty","school, educator, pupil, professor, instructor",1,1,1,0.70718801,0.64389056,0.689451575,0.620444715,0.507600844,0.562669039,0.687365532,0.613064766,0.619580984
ocean,4897,SHIP,SEA,locative,coordinate,locative ,S1,"ANCHOR,BOAT,CAPTAIN,HARBOR,MARINE,MARINES,NAVIGATOR,OCEAN,SAILING,SAILOR,VOYAGE,WATER,YACHT","ship,sea",1,BOAT,"OCEAN,WATER","BOAT,OCEAN,WATER","ship,sea","sea,boat,ship",1,1,"ship,harbor,reef,sea",,0,,0.257384,0.43,0.420012265,1,2,3,1,2,"ship,harbor,sea",locative ,transport,0,2,1,45,0,2,"vessel, ocean, freighter, Spanish_galleons, boat",AA,1,2019-10-28_00h36.39.041,CodenamesAssociation,3.1.5,60,,,1,0,100,77,1,99,0.385539104,"decks, mast, sailor, rigging, sea",0,0.36902475,0.7643541,0,0,0,0,0,1,1,0,0,1,1,SHIP-SEA,"vessels, ocean, boats, waters, navy","oceans, vessels, warship, boats, shore",1,1,1,0.601386428,0.568704486,0.797149599,0.390686303,0.387463897,0.552998066,0.508449554,0.469438791,0.684472859
marriage,3299,RING,WEDDING,temporal,coordinate,temporal,S1,"BELL,ENGAGE,ENGAGEMENT,MARRIAGE,MARRY,WED","wedding, ring",1,"BELL,MARRIAGE,MARRY","ENGAGEMENT,MARRIAGE","BELL,MARRIAGE","wedding, ring","ring, wedding",1,1,"wedding,couple,affair,female,child,weep,upset,glad,cheerful,amuse,silly,foolish,intelligent,know,learning,lesson,student,career,employment,pay,debt,expense,expensive,jewel,ring",,0,,,0.22,0.2343657,1,1,24,1,19,"wedding,wed,chapel,honesty,truthful,gourmet,spicy,seasoning,tomato,berry,orchard,tree,lumber,jigsaw,shears,hair,her,girl,bracelet,ring",temporal,clothing,1,1,1,4,40,3,"bride, nuptials, bridal_shower, sapphire_engagement, mehndi_ceremony",AA,1,2019-10-28_00h36.39.041,CodenamesAssociation,3.1.5,60,,,1,0,100,98,1,99,0.625223576,"feeler, remeasure, reinspect, resized, expander",0,0.08909486,0.56612694,0,0,0,0,0,0,1,0,1,1,1,RING-WEDDING,"couple, bride, birthday, celebration, ceremony","bride, marriage, betrothal, ceremony, engagement",0,1,0,0.469048828,0.405098945,0.701827228,0.263541728,0.118272766,0.62801379,0.318007469,0.16748701,0.533909619
sleep,2199,BED,NIGHT,locative,temporal,temporal,S1,"ASLEEP,BEDROOM,PAJAMAS,SLEEP","bed,sleep,night",1,,SLEEP,,"bed,sleep,night","night,darkness,sleep,bed",1,1,"bed,exhausted,linen,dryer,stove,bake,baker,dessert,frosted,frost,chill,cool,beverage,brandy,rum,throw up,disgusting,nasty,horrible,scary,scream,holler,speak,in,closet,off,night",,0,,-0.000777,0.6,0.252055168,2,3,26,2,15,"bed,sofa,slumber,booze,pub,drink,slurp,food,seasoning,hot,blaze,candle,glow,dusk,dawn,night",temporal,furniture,1,4,4,2,39,0,"evening, morning, foldout_couch, sleeping, afternoon",AA,1,2019-10-28_00h36.39.041,CodenamesAssociation,3.1.5,60,,,1,0,100,91,1,99,0.104322042,"sleep, awake, goodnight, pillow, awakened",1,0.5776864,0.28540924,1,0,1,1,1,1,1,0,0,1,0,BED-NIGHT,"evening, morning, room, sleeping, afternoon","morning, evening, sleep, day, afternoon",1,1,1,0.557572305,0.690891922,0.617520392,0.277525187,0.476492435,0.422158897,0.378174126,0.550070226,0.448394567
eggs,5500,COFFEE,BREAKFAST,coordinate,temporal,temporal,S1,"DOUGHNUT,INSTANT,MORNING,TOAST","coffee,doughnut,breakfast",0,MORNING,"DOUGHNUT,INSTANT,MORNING,TOAST",MORNING,"coffee,milk,cereal,breakfast","breakfast,morning,coffee",0,0,"coffee,orange juice,orchard,cobbler,shortcake,dessert,delicious,dinner,breakfast",,0,,0.086712,0.59,0.478640825,3,2,8,2,6,"coffee,jug,quench,tangy,tart,food,breakfast",temporal,food,1,2,3,9,35,0,"lunch, brunch, cappuccino, pancakes_sausage_orange_juice, meal",AA,1,2019-10-28_00h36.39.041,CodenamesAssociation,3.1.5,60,,,1,0,100,93,1,99,0.383835706,"toast, cup, morning, porringer, bacon",0,0.1954856,0.2439551,0,0,0,0,0,0,0,0,0,0,0,COFFEE-BREAKFAST,"tea, dinner, lunch, meal, drinks","lunch, tea, dinner, capuccino, meal",0,0,0,0.565910757,0.394123495,0.463991761,0.452618212,0.271976143,0.331413239,0.445262402,0.210159302,0.330582619
read,5250,BOOK,GLASSES,argument,argument,coordinate,S1,"NERD,READ,READER","book,reader,glasses",1,"NERD,READ","NERD,READ,READER",READ,"book,read,eyes,glasses","glasses,read,book",1,1,"book,newsstand,article,novel,literature,text,lesson,student,profession,occupation,pay,debt,expense,expensive,jewel,pebble,waves,tide,laundry,hamper,halt,pedal,petals,violet,yellow,shade,squint,eyeball,glasses",,0,,0.063163,0.12,0.110879973,3,2,28,2,18,"book,hymn,protestant,christian,truthful,gourmet,food,bouillon,plenty,much,money,fee,text,assignment,analysis,examine,perceive,sight,glasses",coordinate,manmade,1,3,41,4,0,1,"tome, hardback, paperback_edition, novels, hardbound_edition",AA,1,2019-10-28_00h36.39.041,CodenamesAssociation,3.1.5,60,,,1,0,100,53,1,99,0.214358644,"bernsteins, blurb, library, librarian, altsheler",0,0.38936502,0.15083414,1,0,1,1,0,0,1,0,1,1,1,BOOK-GLASSES,"read, novels, author, memoir, sunglasses, autobiography","spectacles, eyeglasses, lenses, sunglasses, goggles, jacket",1,0,0,0.420849323,0.480129093,0.235128954,0.184386715,0.438819051,0.227575898,0.139884353,0.575819314,0.215495735
cow,3231,BABY,MILK,attributive,attributive,argument,S1,"BREAST,FORMULA,SPOILED","baby,milk",0,,"BREAST,FORMULA,SPOILED",,"baby,rattle,shake,milk","milk,baby",0,0,"baby,kid,weep,upset,glad,cheerful,amuse,silly,foolish,intelligent,intellect,learn,lesson,student,profession,occupation,pay,debt,expense,expensive,jewel,pebble,waves,tide,laundry,dishes,pot,cobbler,shortcake,pudding,frosting,frost,chill,cool,milk",,0,,-0.00177,0.24,0.349372447,3,1,34,1,13,"baby,infant,son,arrogant,despise,honesty,truthful,gourmet,food,slurp,drink,thirst,beverage,milk",argument,people,5,40,3,0,2,0,"newborn, infant, powdered_formula, breastfeeds, dairy",AA,1,2019-10-28_00h36.39.041,CodenamesAssociation,3.1.5,60,,,1,0,100,29,1,99,0.171365271,"nipples, colostrum, gug, denki, newborn",0,0.34400028,0.43413478,0,0,0,0,0,0,0,0,0,0,0,BABY-MILK,"infant, newborn, dairy, eggs, birth","newborn, infant, mother, toddler, child",0,0,0,0.544334829,0.47370699,0.669132173,0.427090883,0.439681292,0.540091753,0.38420254,0.327829301,0.480836391
throw,4248,PAPER,AIRPLANE,argument,argument,argument,S1,FLY,"paper,fly,airplane",0,FLY,FLY,,"paper,bag,luggage,trip,airplane","airplane,fly,paper",0,0,"paper,desk,assignment,lesson,student,profession,occupation,pay,debt,expense,expensive,jewel,pebble,waves,tide,laundry,hamper,halt,start,passenger,airplane",,0,,-0.001698,0.04,0.192570686,4,2,20,2,16,"paper,printing,book,hymn,protestant,christian,truthful,gourmet,food,bouillon,plenty,much,money,cab,taxi,transportation,airplane",argument,manmade,2,39,7,1,0,1,"jetliner, jet, jumbo_jet, cloth_swabs, refilled_cartridge",AA,1,2019-10-28_00h36.39.041,CodenamesAssociation,3.1.5,60,,,1,0,100,36,1,99,0.568529928,"watermark, crepelike, timesaving, mimeographing, citrate",0,0.07479483,0.08810607,0,0,0,0,0,0,0,0,0,0,0,PAPER-AIRPLANE,"aircraft, jet, flight, flying, manufacturer","aircraft, newspaper, airliner, cardboard, pencil",0,0,0,0.413971424,0.319858819,0.258225948,0.287857264,0.137044311,0.254329771,0.220576912,0.195834875,0.101041764
africa,9164,LION,SAFARI,locative,locative,locative ,S1,"AFRICA,ANIMAL,JUNGLE,TIGER","lion,safari",1,"AFRICA,ANIMAL,JUNGLE,TIGER","AFRICA,ANIMAL,JUNGLE,TIGER","AFRICA,ANIMAL,TIGER","lion,safari","safari,lion",1,1,"lion,paw,cat,cuddle,sexy,lady,female,child,tantrum,upset,glad,cheerful,amuse,silly,foolish,intelligent,intellect,learn,lesson,student,profession,occupation,pay,debt,expense,expensive,jewel,pebble,waves,tide,laundry,hamper,halt,pedal,interstate,shift,ox,moose,antler,safari",,0,,0.198852,0.28,0.248641431,1,1,39,1,1,"lion,safari",locative ,animal,0,1,0,48,0,1,"bushbuck, cape_buffalo, rhinos_giraffes, elephant, leopard",AA,1,2019-10-28_00h36.39.041,CodenamesAssociation,3.1.5,60,,,1,0,100,62,1,99,0.9491527,"cosgrove, braying, tamer, marceau, bip",0,0.19874552,0.33958277,0,0,0,0,0,0,1,0,1,1,1,LION-SAFARI,"elephant, leopard, monkey, unicorn, bear","leopard, lioness, black-maned, elephant, tiger",0,0,0,0.463090777,0.333476365,0.414004117,0.400821507,0.231271699,0.3128618,0.358813971,0.183157429,0.22592783
christmas,3131,GIFT,HOLIDAY,temporal,coordinate,temporal,S1,"CHRISTMAS,PARTY,VALENTINE","gift,holiday",1,CHRISTMAS,CHRISTMAS,"CHRISTMAS,PARTY","gift,holiday","holiday,christmas,gift",1,1,"gift,new year,joy,enjoy,amuse,silly,foolish,intelligent,intellect,learn,lesson,student,profession,occupation,pay,debt,expense,expensive,jewel,pebble,waves,tide,laundry,hamper,halt,start,semester,week,sunday,holiday",,0,,0.149681,0.26,0.410946131,1,2,29,1,12,"gift,sincere,truthful,gourmet,food,slurp,drink,pub,booze,slumber,exhausted,rest,holiday",temporal,manmade,2,0,3,5,40,0,"Christmas, Valentine_Day, Thanksgiving, festive, Hanukkah_Kwanzaa",AA,1,2019-10-28_00h36.39.041,CodenamesAssociation,3.1.5,60,,,1,0,100,88,1,99,0.322571446,"celebrations, celebrate, christmas, eve, adjustments",1,0.41954708,0.77851576,0,0,0,1,1,1,1,0,1,1,1,GIFT-HOLIDAY,"christmas, thanksgiving, birthday, shopping, easter","christmas, vacation, celebration, thanksgiving, festive",1,1,1,0.519407332,0.459442437,0.615068257,0.389684498,0.428616047,0.650166571,0.456727624,0.51168716,0.784249187
treasure,7768,KEY,CHEST,attributive,coordinate,argument,S1,LOCK,"key,lock,chest",0,LOCK,LOCK,LOCK,"key,case,doctor,medicine,chest","chest,lock,key",0,0,"key,lock,umpire,holler,scream,scary,horrible,terrific,super,tiny,large,chest",,0,,0.069826,0.04,0.034476671,4,2,11,2,17,"key,driveway,taxi,cab,money,million,plenty,bouillon,food,gourmet,truthful,honesty,chapel,grandpa,uncle,man,courage,chest",argument,instrument,4,39,1,4,0,2,"abdomen, crucial, critical, torso, pea_sprouting_inside",AA,1,2019-10-28_00h36.39.041,CodenamesAssociation,3.1.5,60,,,1,0,100,35,1,99,0.539248268,"nonalphabetic, cursor, uppercase, ackspace, keying",0,0.024853826,0.061068248,0,0,0,0,0,0,0,0,0,0,0,KEY-CHEST,"hand, neck, crucial, vital, back","neck, door, vital, head, heart",0,0,0,0.347576499,0.34231025,0.514069319,0.22443369,0.321231365,0.387376875,0.033972416,0.11353948,0.203427851
desert,4630,CAMEL,WATER,locative,locative,argument,S1,,"camel,water",0,,,,"camel,water","water,drink,fast,speed,bump,lump,camel",0,0,"camel,safari,antler,moose,ox,shift,interstate,pedal,pot,cobbler,shortcake,pudding,frosting,frost,chill,conditioner,water",,0,,-0.001346,0.12,0.169436842,1,6,16,1,2,"camel,reef,water",argument,animalia,2,39,5,2,0,2,"donkeys, dromedary, nonpotable, desalinated, crocodile_infested",AA,1,2019-10-28_00h36.39.041,CodenamesAssociation,3.1.5,60,,,1,0,100,33,1,99,0.953576248,"faucet, splashing, scummy, rainwater, soaks",0,0.35981405,0.22742575,0,0,0,0,0,0,0,0,0,0,0,CAMEL-WATER,"drinking, milk, horse, bottled, sand","dromedary, horse, donkey, desert, liquid",0,1,0,0.440032631,0.542156458,0.511989832,0.217588708,0.416374713,0.294726402,0.098257355,0.264406413,0.291050524
eat,4149,HORSE,HAY,attributive,argument,argument,S1,"BARLEY,BARN,HAYSTACK,STRAW","horse,hay",0,"BARN,STRAW","BARLEY,BARN,HAYSTACK,STRAW",,"horse,animal,farm,barn,hay","hay,horse",0,0,"horse,ox,shift,interstate,pedal,petals,stem,seed,pasture,hay",,0,,-0.001624,0.37,0.433377713,4,1,9,1,16,"horse,gallop,taxi,cab,money,million,plenty,groceries,broth,seasoning,tomato,berry,orchard,seed,shrub,pasture,hay",argument,animal,2,39,3,2,0,1,"stallion, barn, mucking_stalls, ponies, mares",AA,1,2019-10-28_00h36.39.041,CodenamesAssociation,3.1.5,60,,,1,0,100,34,1,99,0.447531719,"saddle, bridle, bareback, whinnied, reins",0,0.09507718,0.19186443,0,0,0,0,0,0,0,0,0,0,0,HORSE-HAY,"vruhl, sheep, cattles, stable, thoroughbred","pony, barn, pasture, cattle, mule",0,0,0,0.501197457,0.305759549,0.33088553,0.331302047,0.184215754,0.2448892,0.265756458,0.179336607,0.199543744
food,3166,TABLE,DINNER,locative,coordinate,temporal,S1,"BANQUET,DINER,EAT,GRACE,MANNERS,NAPKIN,SILVERWARE,TRAY","table,dinner",0,EAT,"BANQUET,DINER,EAT,GRACE,MANNERS,NAPKIN,SILVERWARE,TRAY",EAT,"table,dinner","dinner,food,water,pool,table",0,1,"table,meal,dinner",MEAL,0,,0.140847,0.57,0.345928401,1,4,2,1,10,"table,bench,elm,tree,orchard,berry,tomato,seasoning,food,munch,dinner",temporal,furniture,1,3,7,11,25,3,"supper, brunch, buffet, meal, dining_room",AA,1,2019-10-28_00h36.39.041,CodenamesAssociation,3.1.5,60,,,1,0,100,96,1,99,0.784100301,"centerpiece, dinnerware, tablecloth, dining, napkin",0,0.1748873,0.32926708,0,0,0,1,0,0,0,0,0,0,0,TABLE-DINNER,"supper, banquet, meals, breakfast, guests","luncheon, breakfast, meals, dessert, menu",0,0,0,0.540687442,0.439186394,0.52488637,0.397054762,0.199477434,0.305272818,0.451785713,0.285981327,0.324663401
egg,4149,CHICKEN,ROOSTER,attributive,attributive,coordinate,S1,"COCKY,FARM,HEN,ROOST","chicken,rooster",0,"FARM,HEN",HEN,HEN,"chicken,rooster","rooster,chicken",0,0,"chicken,meal,dinner,delicious,dessert,shortcake,cobbler,orchard,seed,pasture,rooster",,0,,0.068944,0.24,0.443820238,1,1,10,1,5,"chicken,broth,seasoning,tomato,ketchup,rooster",coordinate,animal,1,1,42,2,0,4,"pig, fowl, pasta_fazool, rabbit, feathered_fowl",AA,1,2019-10-28_00h36.39.041,CodenamesAssociation,3.1.5,60,,,1,0,100,49,1,99,0.846504972,"miyo, onions, roosterlike, strutting, coaxing",0,0.57399833,0.35036317,0,0,0,0,0,0,0,0,0,0,0,CHICKEN-ROOSTER,"pig, meat, goat, pork, roast","poultry, cockerel, fowl, egg, cock",0,1,0,0.648395538,0.712140441,0.518459082,0.496564716,0.50659132,0.32141915,0.233032018,0.493398935,0.206168041
construction,4196,BUILDER,HELMET,hierarchical,hierarchical,attributive,S1,,"builder,home,safety,helmet",0,,,,"builder,house,boat,motor,motorcycle,helmet","helmet,head,body,builder",0,0,"builder,construct,architecture,sketch,pen,essay,assignment,lesson,student,profession,occupation,pay,debt,expense,expensive,jewel,pebble,waves,tide,laundry,hamper,halt,pedal,petals,violet,yellow,shade,squint,look,examine,quest,lose,defeat,success,fortune,royal,throne,crown,helmet",,0,,-0.001346,0.07,0.042239301,5,3,38,3,17,"builder,architecture,lumber,tree,orchard,berry,tomato,seasoning,food,gourmet,truthful,honesty,chapel,grandpa,uncle,governor,commander,helmet",attributive,people,44,1,2,0,1,2,"roofing_contractor, motorcycle, mouthguard, visor, renovator",AA,1,2019-10-28_00h36.39.041,CodenamesAssociation,3.1.5,60,,,1,0,100,12,1,99,0.423898435,"medusa, unbeaten, coverall, measurements, perseus",0,0.44562334,0.08604251,0,0,0,0,0,0,0,0,0,0,0,BUILDER-HELMET,"manufacturer, designs, replica, custom, motorcycle","designer, racer, architect, visor, manufacturer",0,0,0,0.278346926,0.580204248,0.346594423,0.138649076,0.465458542,0.130959198,0.024966881,0.420152783,0.055691045
hive,2615,BEE,HONEY,locative,attributive,argument,S1,BEE,"bee,honey",0,,BEE,,"bee,honey","honey,bee",0,0,"bee,ant,insect,annoy,irritate,tantrum,upset,glad,cheerful,amuse,silly,foolish,intelligent,intellect,learn,lesson,student,profession,occupation,pay,debt,expense,expensive,jewel,pebble,waves,tide,laundry,dishes,pot,stem,twig,sap,honey",,0,,-0.0008,0.78,0.476410329,1,1,33,1,12,"bee,drunk,rum,tangy,tart,food,seasoning,tomato,berry,orchard,maple,molasses,honey",argument,animal,5,38,2,4,1,0,"berry, propolis, almond_pollination, hives, blueberry",AA,1,2019-10-28_00h36.39.041,CodenamesAssociation,3.1.5,60,,,1,0,100,37,1,99,0.969235617,"hive, nectar, beekeeping, honeybees, beekeepers",1,0.4462283,0.27468795,0,0,0,0,1,1,0,0,0,0,0,BEE-HONEY,"hives, bumble, beekeepers, nectar, blueberry","stingless, bumblebees, hives, wasp, ant",1,1,1,0.665998042,0.687019169,0.547131598,0.612083018,0.562967479,0.471072435,0.457768977,0.432412177,0.344269514
swing,6901,MONKEY,TAIL,attributive,attributive,attributive,S1,"ANIMAL,DONKEY","monkey,animal,tail",0,DONKEY,"ANIMAL,DONKEY",ANIMAL,"monkey,animal,pig,tail","tail,donkey,monkey",0,0,"monkey,squirrel,pecan,recipe,pot,dishes,laundry,tide,waves,pebble,jewel,expensive,inexpensive,wager,owe,occupation,profession,student,lesson,learn,intellect,intelligent,foolish,silly,amuse,cheerful,glad,upset,weep,child,female,lady,sexy,cuddle,cat,tail",,0,,0.049955,0.36,0.418065518,3,2,35,2,14,"monkey,primate,mister,grandpa,chapel,christian,good,manners,bad,unlawful,sheriff,deputy,dog,coyote,tail",attributive,animal,44,3,2,0,0,1,"flaxen_mane, snake, rhinoceros, peacock_puffing, lizard",AA,1,2019-10-28_00h36.39.041,CodenamesAssociation,3.1.5,60,,,1,0,100,16,1,99,0.70797141,"hind, paws, claws, possum, wag",0,0.17985597,0.22046691,0,0,0,0,0,0,0,0,0,0,0,MONKEY-TAIL,"squirrels, snakes, feathers, cats, spiders","animal, macaque, dog, chimp, tiger",0,0,0,0.468957633,0.361711353,0.40548256,0.313794315,0.192776665,0.250693589,0.288691312,0.159150168,0.222579539
bunny,5148,RABBIT,FUR,coordinate,attributive,attributive,S1,"ANIMAL,CAT,FOX,FUZZY,SOFT","rabbit,fur",0,"ANIMAL,FOX,FUZZY","ANIMAL,FOX","ANIMAL,CAT,FOX,SOFT","rabbit,fur","fur,rabbit",0,0,"rabbit,fur","FOX,FURRY,FUZZ,MINK",0,,0.21212,0.35,0.414676905,1,1,1,1,14,"rabbit,stew,food,seasoning,tomato,berry,orchard,seed,shrub,fungus,grime,sweep,bleach,sweater,fur",attributive,animal,47,0,2,0,1,0,"bunny, fox_mink, cat, rhinocerous, pig",AA,1,2019-10-28_00h36.39.041,CodenamesAssociation,3.1.5,60,,,1,0,100,2,1,99,0.655597157,"fox, paw, bear, pooh, cottontail, cub",0,0.64403373,0.4129845,0,0,0,0,0,1,0,0,0,0,0,RABBIT-FUR,"mink, raccoon, pelts, deer, goat","bunny, pelts,fox, beaver, raccoon",0,1,1,0.48496604,0.707942247,0.44777146,0.365605652,0.553567171,0.204024926,0.369324118,0.570272326,0.160986945
girl,3550,BOY,SCHOOL,coordinate,locative,locative ,S1,"BULLY,CHILD,FRIEND,NERD","boy,friend,school",0,"CHILD,FRIEND","BULLY,CHILD,FRIEND,NERD","CHILD,FRIEND","boy,friend,buddy,system,school","school,child,boy",0,0,"boy,guy,woman,child,tantrum,upset,glad,cheerful,amuse,silly,foolish,intelligent,intellect,learn,lesson,school",,0,,0.133627,0.17,0.325042307,4,2,15,2,13,"boy,arrogant,despise,honesty,truthful,gourmet,food,bouillon,plenty,much,money,fee,text,school",locative ,people,0,1,2,46,0,1,"girl, teenager, elementary, kindergartner, kid",AA,1,2019-10-28_00h36.39.041,CodenamesAssociation,3.1.5,60,,,1,0,100,67,1,99,0.89534795,"octobers, flyspecks, tercanbury, snatch, schoolhouse",0,0.8543272,0.32062298,0,0,0,0,0,1,0,0,0,0,0,BOY-SCHOOL,"girl, teacher, parents, kids, students","girls, kids, teacher, lad, headmaster",1,1,1,0.569215,0.861807704,0.56222564,0.247726262,0.773345947,0.225198627,0.379664212,0.827289104,0.375561953
kite,5032,FLY,SUMMER,attributive,temporal,temporal,S1,"MOSQUITO,SWIM","fly,mosquito,summer",0,SWIM,MOSQUITO,SWIM,"fly,mosquito,summer","summer,water,air,fly",0,0,"fly,insect,annoy,irritate,tantrum,upset,glad,cheerful,amuse,silly,foolish,intelligent,intellect,learn,lesson,student,profession,occupation,pay,debt,expense,expensive,jewel,pebble,waves,surf,summer",,0,,0.07133,0.16,0.107323036,2,3,26,2,17,"fly,aircraft,plane,transportation,taxi,cab,money,million,plenty,groceries,broth,tapioca,tangy,thirst,water,harbor,cruise,summer",temporal,animal,0,5,1,0,44,0,"spring, winter, weekend, Groundhog_predicts, autumn",AA,1,2019-10-28_00h36.39.041,CodenamesAssociation,3.1.5,60,,,1,0,100,84,1,99,0.340236584,"wings, preen, flight, glider, balloonists",0,0.26774514,0.103648886,0,0,0,0,0,0,0,0,0,0,0,FLY-SUMMER,"winter, spring, trip, flights, again","spring, winter, autumn, night, fall",0,0,0,0.335602134,0.481848389,0.331039965,0.227098927,0.417363107,0.154135093,0.249615133,0.298964798,0.06857653
hot,3016,COFFEE,TEA,attributive,attributive,coordinate,S1,"BRISK,CAFFEINE,CUP,DRINK,KETTLE,SAUCER,SIP,STEAM,SUGAR,TEAPOT","coffee,tea",0,CUP,"CAFFEINE,CUP,SUGAR","CUP,DRINK","coffee,tea","tea,coffee",0,0,"coffee,orange juice,orchard,pot,cup,tea",,0,,0.166297,0.55,0.563529193,1,1,5,1,3,"coffee,jug,beverage,tea",coordinate,food,0,3,45,0,0,2,"o_joe, latte, freshly_brewed, cuppa, decaf",AA,1,2019-10-28_00h36.39.041,CodenamesAssociation,3.1.5,60,,,1,0,100,43,1,99,0.646357533,"cup, mug, steaming, toast, porriger, breakfast",0,0.21545154,0.16760069,0,0,0,0,0,0,0,0,0,0,0,COFFEE-TEA,"drinks, beer, sipping, espresso, wine","cuppa, fresh-brewed, decaffeinated, cocoa, cafetiere",0,0,0,0.739075243,0.438870221,0.40837279,0.706561327,0.299088746,0.261234611,0.669211149,0.378561765,0.322448194
man,2147,GIRL,BOY,coordinate,coordinate,coordinate,S1,"BABY,BAD,CHILD,CUDDLE,CUTE,DATE,FRIEND,GAL,GUY,JEWISH,MATE,PARTNER,SCOUT","girl,boy",0,"CHILD,CUTE,FRIEND,SCOUT","FRIEND,GUY",FRIEND,"girl,boy","boy,girl",0,0,"girl,women,gorgeous,boy",,0,,0.111045,0.53,0.854327142,1,1,3,1,17,"girl,her,comb,shears,jigsaw,lumber,tree,orchard,berry,tomato,seasoning,food,gourmet,truthful,honesty,despise,arrogant,boy",coordinate,people,0,2,47,0,1,0,"teenager, woman, man, mother, daughter",AA,1,2019-10-28_00h36.39.041,CodenamesAssociation,3.1.5,60,,,1,0,100,40,1,99,0.258928844,"ported, mudslinger, fended, snatch, sugared",0,0.59217143,0.682487,0,0,0,0,0,1,0,0,0,0,0,GIRL-BOY,"woman, teenager, kid, child, mother","kid, lad, teenager, child, woman",1,1,1,0.861807704,0.66158551,0.680678368,0.773345947,0.57480067,0.576154292,0.827289104,0.549230814,0.620827913
sleigh,4651,SANTA,CHRISTMAS,locative,temporal,temporal,S1,"CHIMNEY,ELF,REINDEER,SLEIGH,STOCKING","santa,christmas",1,,"CHIMNEY,ELF,REINDEER,SLEIGH,STOCKING",,"santa,christmas","christmas,santa",1,1,"santa,untrue,perjury,unlawful,handcuffs,sheriff,lieutenant,captain,harbor,seashore,tide,laundry,dishes,pot,cobbler,shortcake,pudding,frosting,frost,chill,cool,beverage,brandy,rum,throw up,disgusting,nasty,kindness,giving,christmas",,0,,-0.000912,0.34,0.57787329,1,1,29,1,13,"santa,untruthful,bad,manners,good,gourmet,food,slurp,drink,thirst,beverage,glacier,snow,christmas",temporal,people,2,1,4,3,40,0,"xmas, anita, halloween, easter_bunny, elfs",AA,1,2019-10-28_00h36.39.041,CodenamesAssociation,3.1.5,60,,,1,0,100,90,1,99,0.45927309,"claus, yuletide, antonio, alamo, travis",0,0.54539996,0.43272403,0,0,0,0,0,0,1,0,0,1,0,SANTA-CHRISTMAS,"holidays, claus, easter, thanksgiving, eve","claus, reindeers, yuletide, scrooge, grinch",0,0,0,0.617561162,0.504642069,0.463424265,0.353998959,0.337475121,0.472717971,0.314409733,0.284946978,0.296387345
baseball,5713,BALL,PARK,coordinate,locative,locative ,S1,PLAY,"ball,park",0,PLAY,PLAY,,"ball,park","park,play,ball",0,0,"ball,volleyball,racquet,yarn,thread,sew,sleeve,skirt,warm,chill,frost,frosted,dessert,baker,bake,microwave,oven,detergent,tide,seashore,harbor,captain,lieutenant,sheriff,handcuffs,capture,release,permit,park",,0,,-0.001808,0.28,0.139219105,1,2,28,1,15,"ball,volleyball,fun,bartender,pub,drink,slurp,food,bouillon,plenty,much,money,cab,taxi,driveway,park",locative ,manmade,2,2,1,44,1,0,"upfield, dribble, mishit, leftfooted, backpost",AA,1,2019-10-28_00h36.39.041,CodenamesAssociation,3.1.5,60,,,1,0,100,79,1,99,0.637550432,"catcher, mitt, infielder, bat, salvadoreans",0,0.25528044,0.20972541,0,0,0,0,0,0,0,0,0,0,0,BALL-PARK,"corner, balls, pitch, game, just, play","game, pavilion, playground, garden, care",0,0,0,0.466270864,0.520053267,0.485585898,0.200466484,0.303418785,0.212728664,0.223626673,0.316669554,0.245869741
chop,10301,AX,WOOD,attributive,argument,argument,S1,"CHISEL,CHOP,CUT,SAW,TREE","ax,wood",1,CHOP,"CHOP,CUT,SAW","CHOP,CUT,SAW,TREE","ax,wood","wood,chop,ax",1,1,"ax,scissors,operation,infection,flu,kleenex,sob,upset,glad,cheerful,amuse,silly,foolish,intelligent,intellect,learn,lesson,student,profession,occupation,pay,debt,expense,expensive,jewel,pebble,waves,tide,laundry,dishes,pot,stem,maple,elm,lumber,wood",,0,,0.183219,0.41,0.234561294,1,2,35,1,15,"ax,hatchet,brawl,disagreement,despise,honesty,truthful,gourmet,food,seasoning,tomato,berry,orchard,tree,lumber,wood",argument,instrument,1,41,3,4,0,1,"splitting_maul, basically_duffed, timber, hickory, lumber",AA,1,2019-10-28_00h36.39.041,CodenamesAssociation,3.1.5,60,,,1,0,100,25,1,99,0.741331539,"softwoods, veneers, sawed, lumber, walnut",0,0.46937382,0.29282406,0,0,0,1,0,0,1,0,1,1,1,AX-WOOD,"knives, knife, stone, chopping, grind, metal","timber, lumber, oak, firewood, stone, steel",1,0,0,0.385667831,0.543691397,0.449233472,0.176558346,0.327900261,0.284760565,0.156592607,0.367979705,0.213019818
chocolate,13634,BAKER,COOKIE,argument,attributive,argument,S1,"CAKE,DOUGH,FAT,FOOD","baker,food,cookie",0,"CAKE,DOUGH,FAT,FOOD","CAKE,DOUGH","CAKE,DOUGH,FAT,FOOD","baker,cake,cookie","cookie,cake,mix,match,maker,baker",0,0,"baker,dessert,cookie","DESSERT,PASTRY",0,,0.25819,0.18,0.371011853,2,5,2,2,5,"baker,food,gourmet,delicious,pudding,cookie",argument,people,3,40,4,0,0,3,"peanut_butter_fudge, pastry, cupcake, coffeecake, crumb_cake",AA,1,2019-10-28_00h36.39.041,CodenamesAssociation,3.1.5,60,,,1,0,100,30,1,99,0.168448718,"pastry, cakes, dough, ravioli, butter",0,0.38864064,0.5256574,0,0,0,0,0,0,0,0,0,0,0,BAKER-COOKIE,"cake, dough, chocolate, pie, cook","bakery, pastry, cakes, chocolate-chip, biscuit",1,1,0,0.459566206,0.437227368,0.549078107,0.326722771,0.271360606,0.553322315,0.145218149,0.140436471,0.5601089
cook,3631,CHEF,KITCHEN,argument,locative,locative ,S1,"APRON,COOK,COOKBOOK,COOKING,FOOD","chef,food,kitchen",1,COOK,COOK,"COOK,FOOD","chef,cook,kitchen","kitchen,cook,chef",1,1,"chef,diner,dinner,delicious,dessert,baker,bake,spatula,kitchen",,0,,0.173212,0.34,0.507391632,2,2,8,2,3,"chef,baker,spatula,kitchen",locative ,people,2,1,0,46,1,0,"cooks, garde_manger, dining_room, cooking, culinary",AA,1,2019-10-28_00h36.39.041,CodenamesAssociation,3.1.5,60,,,1,0,100,68,1,99,0.309916203,"dishes, dining, stove, pantry, platters",0,0.5625564,0.5399413,0,0,1,1,0,1,1,0,1,1,1,CHEF-KITCHEN,"restaurant, cooking, dining, dishes, gourmet","cooking, restaurant, sous-chef, dishes, restaurateur",1,1,1,0.650573134,0.690416694,0.683798552,0.488772124,0.436648279,0.449192315,0.520939827,0.449490786,0.42816323
maul,7982,BEAR,TEETH,argument,idiosyncratic,attributive,S1,"BEAVER,WOLF","bear,beaver,teeth",0,,"BEAVER,WOLF",,"bear,brown,hair,teeth","teeth,cavity,cave,bear",0,0,"bear,vet,paw,cougar,barracuda,chew,teeth",,0,,-0.002026,0.03,0.111315995,3,3,6,2,19,"bear,huge,husky,mister,grandpa,chapel,honesty,truthful,gourmet,food,seasoning,tomato,berry,orchard,seed,shrub,fungus,grime,sweep,teeth",attributive,animal,44,2,1,1,0,2,"tooth, fangs, claws, incisors, wailing_gnashing",AA,1,2019-10-28_00h36.39.041,CodenamesAssociation,3.1.5,60,,,1,0,100,11,1,99,0.73094609,"grizzly, crookedly, niaoniao, cusps, slewfoot",0,0.15505403,0.22917184,0,0,0,0,0,0,0,0,0,0,0,BEAR-TEETH,"tooth, claws, bones, eyes, bite, jaw","tooth, fangs, claws, bore, jaws, gnashes",0,0,0,0.343591601,0.340897173,0.31281206,0.27752462,0.26485908,0.29510197,0.269619763,-0.014812799,0.038625967
present,3299,GIFT,CAKE,coordinate,temporal,coordinate,S1,"BIRTHDAY,PARTY","gift,birthday,cake",0,BIRTHDAY,"BIRTHDAY,PARTY","BIRTHDAY,PARTY","gift,party,cake","cake,birthday,gift",0,0,"gift,new year,joy,enjoy,amuse,silly,foolish,intelligent,intellect,learn,lesson,student,profession,occupation,pay,debt,expense,expensive,jewel,pebble,waves,tide,laundry,dishes,pot,cobbler,shortcake,dessert,cake",,0,,0.113232,0.18,0.300831228,2,2,28,2,5,"gift,sincere,good,shortcake,dessert,cake",coordinate,manmade,1,3,38,2,2,4,"Homemade_cookies, cutout_cookies, blackberry_pie, cookie_bouquets, shamrock_cookies",AA,1,2019-10-28_00h36.39.041,CodenamesAssociation,3.1.5,60,,,1,0,100,58,1,99,0.042084569,"chiffon, cookies, unshortened, leavener, leavened",0,0.1863716,0.13599373,0,0,0,0,0,0,0,0,0,0,0,GIFT-CAKE,"chocolate, dessert, candy, cookies, bread","birthday, dessert, wedding, cupcake, celebration, chocolate",0,0,0,0.436579615,0.345540196,0.258693099,0.387403071,0.184315741,0.186008275,0.352482706,0.223565146,0.070637546
bake,6368,MOUSE,HOUSE,idiosyncratic,locative,locative ,S1,FIELD,"mouse,house",0,,FIELD,,"mouse,house","house,dog,cat,mouse",0,0,"mouse,possum,acorn,pecan,bake,stove,dryer,linen,exhausted,couch,furniture,house",,1,,-0.00109,0.18,0.081209846,1,3,11,1,12,"mouse,rodent,juice,drink,slurp,food,seasoning,tomato,berry,orchard,tree,lumber,house",locative ,animal,0,1,2,48,1,0,"bedroom, bungalow, cat, rabbit_hutch, apartment",AA,1,2019-10-28_00h36.39.041,CodenamesAssociation,3.1.5,60,,,1,0,100,63,1,99,0.159048629,"scotts, gussie, cats, whirrings, clatterings",0,0.060275443,0.172528,0,1,0,0,0,0,0,0,0,0,0,MOUSE-HOUSE,"white, room, cat, block, door","rat, cottage, cat, apartment, rodent",0,0,0,0.344324529,0.264467925,0.338975102,0.195801213,0.150948256,0.279407442,0.103652582,0.031945322,0.055072337
play,2680,CAT,YARN,argument,argument,argument,S1,STRING,"cat,string,yarn",0,STRING,STRING,,"cat,mouse,hole,button,sew,yarn","yarn,string,cat",0,0,"cat,cuddle,sexy,lady,female,child,tantrum,upset,glad,cheerful,amuse,silly,foolish,intelligent,intellect,learn,lesson,student,profession,occupation,pay,debt,expense,expensive,jewel,pebble,waves,tide,laundry,dishes,pot,cobbler,shortcake,pudding,frosting,frost,chill,warm,skirt,sleeve,hem,thread,yarn",,0,,-0.000683,0,0.164822608,5,2,42,2,14,"cat,cougar,vehicle,cab,money,million,plenty,groceries,broth,seasoning,hot,slacks,denim,cotton,yarn",argument,animal,5,40,2,1,0,2,"kitten, feline, pet, calico, angora_rabbit",AA,1,2019-10-28_00h36.39.041,CodenamesAssociation,3.1.5,60,,,1,0,100,31,1,99,0.258905802,"meow, mouse, begind, yellowest, outwait",0,0.11053811,0.07733041,0,0,0,0,0,0,0,0,0,0,0,CAT-YARN,"dog, pet, wool, rabbit, woven","kitten, dog, pet, feline, kitty, tabby",0,0,0,0.347469658,0.302978486,0.353625238,0.238102078,0.169282764,0.214840442,0.081565894,0.173619777,0.016639953
arms,2898,HANDS,FEET,coordinate,coordinate,coordinate,S1,"LEGS,MASSAGE","hands,feet",0,,LEGS,,"hands,feet","feet,hands",0,0,"hands,off,closet,open,near,distance,mile,feet",,0,,-0.000907,0.48,0.288022399,1,1,7,1,9,"hands,whiskers,shears,jigsaw,wood,architecture,painting,paint,toes,feet",coordinate,body_part,2,2,42,3,0,1,"knees, toes, tightly_clasped, tippy_toes, foot",AA,1,2019-10-28_00h36.39.041,CodenamesAssociation,3.1.5,60,,,1,0,100,50,1,99,0.81534119,"knees, toes, handstand, stunt, toenail",0,0.41255277,0.20979425,0,0,0,0,0,0,0,0,0,0,0,HANDS-FEET,"legs, fingers, down, knees, shoulders","knees, fingers, legs, ankles, inches",0,0,0,0.654031754,0.592513084,0.474814177,0.439019382,0.481307477,0.262197196,0.400719762,0.518326938,0.246860251
paper,1834,PENCIL,PEN,coordinate,coordinate,coordinate,S1,"DESK,DOT,ERASER,HOLDER,MARK,MARKER,NOTEBOOK,PAD,PAPER,PAPERCLIP,POINT,RULER,SCRIBBLE,WRITE,WRITING","pencil,pen",1,"PAPER,WRITE","ERASER,POINT,WRITE",WRITE,"pencil,pen","pen,pencil",1,1,"pencil,paper,pen","MARKER,PAD,PAPER",1,,0.166197,0.42,0.576799393,1,1,2,1,1,"pencil,pen",coordinate,instrument,3,0,45,1,0,1,"notepad, without_sharpener_pointless, crayon, quill, eraser",AA,1,2019-10-28_00h36.39.041,CodenamesAssociation,3.1.5,60,,,1,0,100,44,1,99,0.418585855,"lettering, vellum, draw, clip, plasticizing",0,0.44754058,0.39230004,0,1,0,0,0,0,1,1,1,0,0,PENCIL-PEN,"ink, ballpoint, crayon, stylus, drawings","ballpoint, felttip, ink, crayon, biro",0,0,0,0.694927633,0.635161936,0.524344504,0.511987865,0.519693136,0.324960798,0.467882246,0.421675056,0.356920332
soup,3149,CHICKEN,CORN,hierarchical,hierarchical,argument,S1,"EAT,FEED,FOOD,RICE","chicken,rice,corn",0,"EAT,FOOD","EAT,FEED,FOOD,RICE","EAT,FOOD","chicken,rooster,crow,corn","corn,food,steak,chicken",0,0,"chicken,meal,supper,feed,broth,omelet,pancakes,corn",,0,,0.097534,0.33,0.411309212,3,3,7,2,4,"chicken,broth,vegetable,crops,corn",argument,animal,3,38,4,1,1,3,"pork, potato, meat, rice, soybean",AA,1,2019-10-28_00h36.39.041,CodenamesAssociation,3.1.5,60,,,1,0,100,38,1,99,0.399806419,"oats, wheat, hogs, beans, soybeans",0,0.5507815,0.2811083,0,0,0,0,0,0,0,0,0,0,0,CHICKEN-CORN,"pork, meat, vegetables, potatoes, wheat","maize, rice, poultry, wheat, beef",0,0,0,0.52504313,0.560775757,0.386503041,0.497896284,0.596263766,0.396017671,0.411869615,0.603498101,0.355026096
baby,2600,WOMAN,MAN,attributive,attributive,coordinate,S1,"ATTRACTIVE,DOMINATE,GENTLEMAN,GORGEOUS,LADY,MATURE,PERSON,RAPE,SEXY,WIFE","woman,man",0,"LADY,WIFE",LADY,LADY,"woman,man","man,woman",0,0,"woman,male,man",MALE,0,,0.125326,0.37,0.766401231,1,1,2,1,18,"woman,her,comb,shears,jigsaw,lumber,tree,orchard,berry,tomato,seasoning,food,gourmet,truthful,honesty,chapel,grandpa,uncle,man",coordinate,people,0,3,47,0,0,0,"teenage_girl, girl, teenager, boy, person",AA,1,2019-10-28_00h36.39.041,CodenamesAssociation,3.1.5,60,,,1,0,100,42,1,99,0.527523753,"kopecks, masturbate, vicario, christobal, moony, objectionably, bedad, whippin",0,0.43187115,0.27722397,0,0,0,0,0,0,0,0,0,0,0,WOMAN-MAN,"girl, person, boy, mother, another","lady, girl, person, guy, boy",0,0,0,0.816452205,0.555015445,0.509568036,0.685204089,0.445039123,0.388934135,0.699866474,0.463984013,0.329140842
feet,4035,HANDS,LEGS,coordinate,coordinate,coordinate,S1,"ARMS,FEET,OCTOPUS","hands,legs",1,"ARMS,FEET",ARMS,"ARMS,FEET","hands,legs","legs,arms,hands",1,1,"hands,off,closet,open,near,distance,legs",,0,,0.18406,0.44,0.375122607,1,2,6,1,12,"hands,whiskers,shears,jigsaw,lumber,tree,orchard,berry,tomato,seasoning,hot,shorts,legs",coordinate,body_part,1,3,43,2,0,1,"knees, ankles, fingers, toes, hips",AA,1,2019-10-28_00h36.39.041,CodenamesAssociation,3.1.5,60,,,1,0,100,46,1,99,0.92269471,"arms, knees, hind, toes, ankles",0,0.28802237,0.43670246,0,0,0,0,0,0,1,0,1,0,1,HANDS-LEGS,"fingers, knees, shoulders, limbs, eyes","feet, knees, fingers, arms, ankles",0,1,0,0.569544673,0.654031754,0.639493704,0.478398502,0.439019382,0.497696519,0.483219266,0.400719762,0.509289503
fly,5664,BIRD,WINGS,attributive,argument,attributive,S1,"AIRPLANE,BAT,BUTTERFLY,CHICKEN,EAGLE,FEATHER,FEATHERS,FLAP,FLUTTER,FLY,FLYING,FREE,GULL","bird,wings",1,"CHICKEN,EAGLE,FEATHER,FLY,FREE","FEATHER,FLY","EAGLE,FEATHER,FLY","bird,wings","wings,bird",1,1,"bird,wings","BIRDS,HAWK",0,,0.220193,0.78,0.327206105,1,1,1,1,1,"bird,wings",attributive,animal,46,1,2,0,1,0,"falcon, hummingbird, raptor, turkey_buzzard, sparrow_hawk",AA,1,2019-10-28_00h36.39.041,CodenamesAssociation,3.1.5,60,,,1,0,100,3,1,99,0.352548838,"feathers, beak, preen, fluffing, eagle",0,0.28470996,0.2911256,0,0,0,0,0,0,1,0,1,1,1,BIRD-WINGS,"ducks, feathers, flu, tail, wing","beak, feathers, eagle, chicken, avian",0,0,0,0.514146507,0.471812725,0.474223942,0.286520422,0.371011674,0.371251047,0.270801872,0.319475323,0.318333477
monitor ,11250,AIRPLANE,AIRPORT,attributive,attributive,locative ,S1,"AIRCRAFT,DELAY,DEPART,FLY,RESERVATION,TERMINAL,TRAVEL,TRIP","airplane,airport",0,"FLY,TRIP",AIRCRAFT,"FLY,TRAVEL,TRIP","airplane,airport","airport,trip,airplane",0,0,"airplane,aircraft,airport",AIRCRAFT,0,,0.266533,0.7,0.50861001,1,2,2,1,1,"airplane,airport",locative ,transport,1,2,0,44,3,0,"flight, jet, jetliner, aviation, hangar",AA,1,2019-10-28_00h36.39.041,CodenamesAssociation,3.1.5,60,,,1,0,100,78,1,99,0.256313928,"runway, plane, pilot, flying, stewardess",0,0.03671973,0.0521835,0,0,0,0,0,0,0,0,0,0,0,AIRPLANE-AIRPORT,"flights, aircraft, jet, airline, passenger","aircraft, airfield, aviation, airliner, hangar",0,0,0,0.633086205,0.253168615,0.19921472,0.426874369,0.143803449,0.145067999,0.440924257,0.023104756,0.058238709
flattop ,6168,TABLE,LEGS,attributive,attributive,attributive,S1,,"table,legs",0,,,,"table,legs","legs,body,shape,round,table",0,0,"table,meal,dinner,delicious,dessert,frosted,frost,chill,cool,beverage,brandy,rum,throw up,yuck,crude,ghoul,terror,yell,whisper,shut,near,distance,legs",,0,,-0.00109,0.1,0.135484904,1,4,22,1,10,"table,bench,elm,tree,orchard,berry,tomato,seasoning,hot,shorts,legs",attributive,furniture,49,3,3,2,0,1,"ankles, thighs, knees, bandaged_stump, hips",AA,1,2019-10-28_00h36.39.041,CodenamesAssociation,3.1.5,60,,,1,0,100,0,1,99,0.530213898,"nonrated, messcook, bunkroom, dinnerware, centerpiece",0,0.060162537,0.19308239,0,0,0,0,0,0,0,0,0,0,0,TABLE-LEGS,"hand, sitting, fingers, knees, shoulders","elbows, rows, ankles, limbs, chairs",0,0,0,0.403050512,0.183109289,0.29559501,0.227382168,0.214981207,0.309169702,0.275958151,-0.113498165,-0.067264847
shopping,7266,WOMAN,PURSE,attributive,hierarchical,attributive,S1,"GIRL,HANDBAG,POCKETBOOK","woman,handbag,purse",0,"GIRL,HANDBAG,POCKETBOOK","GIRL,HANDBAG,POCKETBOOK",GIRL,"woman,love,hug,hold,carry,purse","purse,handbag,woman",0,0,"woman,child,tantrum,upset,glad,cheerful,amuse,silly,foolish,intelligent,intellect,learn,lesson,assignment,desk,backpack,handbag,purse",,0,,0.108332,0.51,0.285421014,5,2,17,2,16,"woman,her,comb,shears,jigsaw,lumber,tree,orchard,berry,tomato,seasoning,food,bouillon,plenty,much,money,purse",attributive,people,44,2,4,0,0,0,"man, girl, handbag, wallet, teenage_girl",AA,1,2019-10-28_00h36.39.041,CodenamesAssociation,3.1.5,60,,,1,0,100,17,1,99,0.103941181,"blackwell, wombe, malevolently, husband, yong",0,0.14262822,0.1428249,0,0,0,0,0,0,0,0,0,0,0,WOMAN-PURSE,"her, girl, man, she, mother","man, lady, handbag, girl, woman, women",0,0,0,0.413302541,0.312416971,0.354783267,0.172641635,0.131907836,0.266232848,0.17678152,0.198154479,0.119193606
restaurant,4980,WAITRESS,WAITER,locative,locative,coordinate,S1,"BARTENDER,DINNER,FOOD,HOST,HOSTESS,RESTAURANT,SERVER,TIP,TRAY","waitress,waiter",1,"SERVER,TIP,TRAY","HOST,SERVER,TIP","DINNER,FOOD,RESTAURANT,SERVER,TIP,TRAY","waitress,waiter","waiter,waitress",1,1,"waitress,waiter","DINE,SERVER",0,,0.462246,0.52,0.758147597,1,1,1,1,3,"waitress,bouillon,food,waiter",coordinate,people,2,4,39,0,1,4,"bartender, busboy, maitre_d, barman, cashier",AA,1,2019-10-28_00h36.39.041,CodenamesAssociation,3.1.5,60,,,1,0,100,57,1,99,0.715823611,"restaurant, placemats, flatware, dinnerware, buffet",1,0.5417482,0.56068194,0,0,0,0,1,0,1,0,0,0,1,WAITRESS-WAITER,"bartender, receptionist, busboy, diner, janitor","bartender, barman, busboy, waitstaff, restaurant, barmaid",0,1,0,0.82056272,0.656721294,0.68347019,0.719068885,0.554346979,0.584980249,0.677602947,0.46264112,0.486256093
bear,2150,LION,TIGER,coordinate,coordinate,coordinate,S1,"ANIMAL,ANIMALS,BEAR,CAGE,CAT,COUGAR,CUB,FIERCE,JUNGLE,LEO,LEOPARD,PANTHER,PREDATOR,ROAR,SAFARI,TAME","lion,tiger",1,"ANIMAL,CAGE,JUNGLE,ROAR","BEAR,CUB,FIERCE,LEO,ROAR,SAFARI","ANIMAL,CAT,ROAR","lion,tiger","tiger,lion",1,1,"lion,paw,tiger",PAW,0,,0.198852,0.68,0.512104034,1,1,2,1,1,"lion,tiger",coordinate,animal,0,5,41,0,1,3,"elephant, leopard, gorilla, rhino, leopard_cub",AA,1,2019-10-28_00h36.39.041,CodenamesAssociation,3.1.5,60,,,1,0,100,56,1,99,0.045342767,"cosgrove, braying, tamer, mouse, cage",0,0.44458425,0.41424513,0,0,0,0,0,0,1,0,0,1,0,LION-TIGER,"elephant, leopard, dragon, bear, shark","leopard, elephant, lioness, tigress, cub, dragon, panther",1,0,0,0.669271469,0.47100544,0.44361037,0.495273322,0.489874125,0.367026865,0.427812457,0.484767139,0.355037421
present,2865,GIFT,CHRISTMAS,coordinate,temporal,temporal,S1,"GIVING,HOLIDAY,PACKAGE,PRESENT","gift,christmas",1,PRESENT,"HOLIDAY,PRESENT","HOLIDAY,PRESENT","gift,christmas","christmas,gift",1,1,"gift,new year,joy,enjoy,amuse,silly,foolish,intelligent,intellect,learn,lesson,student,profession,occupation,pay,debt,expense,expensive,jewel,pebble,waves,tide,laundry,dishes,pot,cobbler,shortcake,pudding,frosting,frost,chill,cool,beverage,brandy,rum,throw up,disgusting,nasty,kindness,giving,christmas",,0,,0.137488,0.25,0.337495804,1,1,40,1,11,"gift,sincere,truthful,gourmet,food,slurp,drink,thirst,beverage,glacier,snow,christmas",temporal,manmade,1,4,2,2,41,0,"xmas, pressie, holiday, stocking_stuffers, Greeting_cards, valentine",AA,1,2019-10-28_00h36.39.041,CodenamesAssociation,3.1.5,60,,,1,0,100,86,1,99,0.808941737,"caroling, eve, holiday, celebrate, rockefeller",0,0.1863716,0.18572417,0,0,0,0,0,0,1,0,1,1,1,GIFT-CHRISTMAS,"holidays, thanksgiving, birthday, easter, eve","holidays, yuletide, crimbo, thanksgiving, scrooge",0,0,0,0.459442437,0.345540196,0.261960953,0.428616047,0.184315741,0.260228693,0.51168716,0.223565146,0.211617798
cut,4616,TREE,WOOD,argument,argument,locative ,S1,"AX,BARK,BEAVER,ELM,FOREST,FORT,HOUSE,LOG,LUMBER,OAK,PAPER,PINE,ROT,SAW,STICK,STUMP,TIMBER","tree,wood",0,"BARK,FOREST,LOG,OAK,PAPER,SAW","FORT,OAK,PINE,STUMP","BARK,FOREST,HOUSE,OAK","tree,fort,wood","wood,tree",0,0,"tree,trees,lawn,marijuana,smoke,stench,parsley,cauliflower,sandwich,dinner,delicious,dessert,shortcake,cobbler,pot,stem,maple,elm,lumber,wood",,0,,0.169332,0.34,0.380380124,2,1,19,1,2,"tree,lumber,wood",locative ,plant,7,1,2,367,0,3,"Douglas_fir, scotch_pine, conifer, maple_oak, cedar",AA,1,2019-10-28_00h36.39.041,CodenamesAssociation,3.1.5,60,,,1,0,100,60,1,99,0.545237773,"chicle, trunk, oak, hartwood, bark",0,0.10072158,0.152284,0,0,0,0,0,0,0,0,0,0,0,TREE-WOOD,"oak, pine, bark, bamboo, forest","oak, timber, pine, forest, twig",0,0,0,0.55965656,0.309721202,0.409028411,0.410937041,0.276946992,0.3302553,0.426671177,0.259688199,0.28224954
water,4850,RIVER,WATER,attributive,coordinate,attributive,S1,"BAY,BOAT,BRIDGE,BROOK,CANAL,CANOE,CHANNEL,COOL,CREEK,CURRENT,DAM,DAMN,DOWNSTREAM,FISH,FLOOD,FLOW,GULLY,INLET,LAKE,MOAT,OCEAN,OTTER,OVERFLOW,RAFT,RAPID,ROCKS,SEA,STREAM,SWIM,TUBE,UPSTREAM,WATERFALL","river,water",1,"LAKE,SEA","BOAT,BROOK,CANOE,COOL,FISH,FLOW,LAKE,OCEAN,STREAM,SWIM","COOL,LAKE,OCEAN,SWIM","river,water","water,sea,river",1,1,"river,sail,harbor,seashore,tide,laundry,dishes,pot,cobbler,shortcake,pudding,frosting,frost,chill,conditioner,water",,1,,0.209386,0.21,0.576898456,1,2,15,1,2,"river,brook,water",attributive,location,45,2,0,2,1,0,"lake, creek, canal, tributary, lagoon",AA,1,2019-10-28_00h36.39.041,CodenamesAssociation,3.1.5,60,,,1,0,100,6,1,99,0.355419772,"downstream, upstream, rapids, tributaries, riverbank",0,0.57689846,0.99999994,1,1,1,1,0,0,1,0,0,0,0,RIVER-WATER,"lake, flows, reservoir, stream, basin","creek, lake, sea, basin, boat",0,0,0,0.623515666,0.623515666,1,0.460904032,0.460904032,1.000000119,0.498581171,0.498581171,1.000000119
hack,4249,AX,TREE,attributive,argument,argument,S1,"SAW,WOOD","ax,tree",0,,"SAW,WOOD",,"ax,tree","tree,fort,wood,chop,ax",0,0,"ax,scissors,operation,infection,flu,kleenex,sob,upset,glad,cheerful,amuse,silly,foolish,intelligent,intellect,learn,lesson,student,profession,occupation,pay,debt,expense,expensive,jewel,pebble,waves,tide,laundry,dishes,pot,cobbler,shortcake,dessert,delicious,dinner,sandwich,cauliflower,parsley,stench,smoke,marijuana,lawn,trees,tree",,0,,-0.001861,0.45,0.275825322,1,4,44,1,13,"ax,hatchet,brawl,disagreement,despise,honesty,truthful,gourmet,food,seasoning,tomato,berry,orchard,tree",argument,instrument,0,45,1,1,1,2,"chainsaw, laurel_oak, crepe_myrtle, sapling, telegraph_pole",AA,1,2019-10-28_00h36.39.041,CodenamesAssociation,3.1.5,60,,,1,0,100,20,1,99,0.473587036,"trunk, oak, squirrel, limb, chicle",0,0.27569738,0.09398422,0,0,0,0,0,0,0,0,0,0,0,AX-TREE,"knife, chooping, bark, oak, pruning","sapling, trunk, chainsaw, twigs, oak",0,0,0,0.369939595,0.443805456,0.359976351,0.205852658,0.356614351,0.25443542,0.128979176,0.288295329,0.085164279
celebrate,3765,CAKE,BIRTHDAY,argument,temporal,temporal,S1,PARTY,"cake,birthday",0,PARTY,PARTY,PARTY,"cake,birthday","birthday,cake",0,0,"cake,dessert,baker,bake,microwave,oven,detergent,tide,waves,pebble,jewel,expensive,inexpensive,wager,owe,occupation,profession,student,lesson,learn,intellect,intelligent,foolish,silly,amuse,cheerful,glad,upset,weep,kid,youth,birthday",,0,,0.057716,0.5,0.331835121,1,1,31,1,10,"cake,dessert,shortcake,spicy,food,slurp,drink,pub,bartender,celebrate,birthday",temporal,food,0,0,1,3,46,0,"wedding_anniversary, peanut_butter_frosting, peanut_butter_fudge, dessert, b'day",AA,1,2019-10-28_00h36.39.041,CodenamesAssociation,3.1.5,60,,,1,0,100,82,1,99,0.827676067,"invitations, cookies, invite, tuba, candles",0,0.26131648,0.41189224,0,0,0,0,0,0,0,0,0,0,0,CAKE-BIRTHDAY,"wedding, celebrate, chocolate, christmas, cookies","anniversary, deathday, celebration, cupcakes, wedding, dessert",1,0,0,0.575305521,0.391343862,0.530326247,0.428723991,0.367159307,0.547353864,0.394276202,0.280529976,0.664088607
broom,3866,WITCH,CAPE,attributive,coordinate,attributive,S1,BLACK,"witch,black,cape",0,BLACK,BLACK,BLACK,"witch,mean,nasty,boys,hood,cape","cape,magician,wand,witch",0,0,"witch,crude,ghoul,terror,yell,whisper,shut,lid,hood,cape",,0,,0.045761,0.12,0.322839856,5,3,9,2,12,"witch,phantom,bad,manners,good,gourmet,food,slurp,drink,thirst,water,snorkel,cape",attributive,people,45,2,0,2,0,1,"pointy_hat, fairy, sorceress, giantess, chainmail",AA,1,2019-10-28_00h36.39.041,CodenamesAssociation,3.1.5,60,,,1,0,100,9,1,99,0.542530629,"hottentots, leone, mozambique, navigator, boers",0,0.28943515,0.35974002,0,0,0,0,0,0,0,0,0,0,0,WITCH-CAPE,"cod, ghost, nantuckets, town, black","sorcerer, sorceress, costume, hunter, magic",0,0,0,0.386997372,0.492026299,0.359518081,0.204686239,0.373948663,0.265213579,0.14937976,0.250955284,0.067435324
food,3415,PLATE,DINNER,locative,coordinate,temporal,S1,"EAT,FOOD,NAPKIN,PARSLEY,SILVERWARE,TRAY","plate,dinner",1,"EAT,FOOD",SILVERWARE,"EAT,FOOD","plate,dinner","dinner,lunch,salad,bowl,plate",1,1,"plate,spatula,bake,baker,dessert,delicious,dinner",,0,,0.257668,0.37,0.296010017,1,4,6,1,4,"plate,fork,food,munch,dinner",temporal,manmade,2,6,5,5,30,2,"supper, brunch, stir_fried_greens, meal, banquet",AA,1,2019-10-28_00h36.39.041,CodenamesAssociation,3.1.5,60,,,1,0,100,94,1,99,0.041052096,"flatware, dinnerware, tablecloth, napkin, buffet",0,0.18963689,0.32926708,0,0,0,0,0,0,1,0,1,0,1,PLATE-DINNER,"luncheon, breakfast, meals, dessert, menu","supper, meals, banquet, luncheon, breakfast",0,0,0,0.494263172,0.427806377,0.52488637,0.241565526,0.202915773,0.305272818,0.310116172,0.119423725,0.324663401
rain,8899,FLOWER,SPRING,temporal,temporal,attributive,S1,"BLOOM,BLOSSOM,BUTTERFLY,FRESH,SUN","flower,spring",0,SUN,"BLOOM,BLOSSOM",SUN,"flower,blossom,spring","spring,flower",0,0,"flower,stem,pot,dishes,laundry,tide,seashore,hawaii,spring",,0,,0.056778,0.24,0.243925169,2,1,8,1,13,"flower,petals,tulip,ketchup,tomato,seasoning,oregano,tapioca,tangy,thirst,water,harbor,cruise,spring",attributive,plant,1,2,3,0,44,0,"bloomed_profusely, autumn, blooming_bulbs, apple_blossoms, daffodils_tulips",AA,1,2019-10-28_00h36.39.041,CodenamesAssociation,3.1.5,60,,,1,0,100,97,1,99,0.633457614,"petals, bloom, bluebonnets, pistil, pollen",0,0.16824928,0.19160497,0,0,0,0,0,0,0,0,0,0,0,FLOWER-SPRING,"autumn, summer, winter, garden, blossoms","autumn, blossoms, summer, blooming, winter",0,0,0,0.467693895,0.4449853,0.42467317,0.342937529,0.34492296,0.359500527,0.34325543,0.220411703,0.346784413
lakehouse,8267,BOAT,SUMMER,coordinate,temporal,temporal,S1,WATER,"boat,water,summer",0,WATER,WATER,WATER,"boat,trip,fall,summer","summer,swim,paddle,boat",0,0,"boat,lake,reef,seashore,surf,summer",,0,,0.077945,0.09,0.10298191,3,3,5,2,3,"boat,harbor,cruise,summer",temporal,transport,1,3,5,3,36,2,"kayak, canoe, spring, dinghy, pontoon",AA,1,2019-10-28_00h36.39.041,CodenamesAssociation,3.1.5,60,,,1,0,100,92,1,99,0.283001678,"oars, paddle, oiler, rowboat, capsize",0,0.2594896,0.3029002,0,0,0,0,0,0,0,0,0,0,0,BOAT-SUMMER,"winter, sailing, spring, fishing, ship","winter, spring, autumn, weekend, year",0,0,0,0.410816789,0.252442793,0.259798051,0.234083056,0.238365993,0.293801546,0.244845182,-0.162089593,-0.188656519
swing,2847,CHILD,PLAYGROUND,locative,locative,locative ,S1,"KID,SCHOOL,SWING","child,swing,playground",1,"KID,SCHOOL,SWING","KID,SCHOOL,SWING",KID,"child,little,lot,park,playground","playground,school,child",1,1,"child,woman,guy,boy,toy,playground",,0,,0.073349,0.17,0.279034376,4,2,5,2,14,"child,son,arrogant,despise,honesty,truthful,gourmet,food,bouillon,plenty,much,money,fee,terms,playground",locative ,people,1,2,0,45,1,1,"preschooler, toddler, parents, kids, babysitter",AA,1,2019-10-28_00h36.39.041,CodenamesAssociation,3.1.5,60,,,1,0,100,74,1,99,0.618789871,"periodof, caregivers, mothering, asist, nonaccidental",0,0.058840677,0.17123732,1,0,0,0,0,0,1,0,1,1,0,CHILD-PLAYGROUND,"kids, parents, girls, boys, childhood, infant","kid, toddler, boy, kids, preschool",0,0,0,0.479296595,0.334744722,0.407166868,0.264626533,0.16380237,0.320819438,0.238193974,0.102501176,0.133654952
rock,3918,BABY,CRADLE,argument,argument,locative ,S1,"BASSINET,CRIB,CUDDLE","baby,cradle",0,"CRIB,CUDDLE",CUDDLE,"CRIB,CUDDLE","baby,cuddle,cradle","cradle,baby",0,0,"baby,kid,weep,cradle",,0,,0.204499,0.45,0.294499516,2,1,3,1,1,"baby,cradle",locative ,people,2,0,3,45,0,0,"newborn, infant, toddler, bassinette, swaddling_blanket",AA,1,2019-10-28_00h36.39.041,CodenamesAssociation,3.1.5,60,,,1,0,100,70,1,99,0.764727587,"newborn, bassinet, womb, infant, pediatrician",0,0.12735271,0.23864684,0,0,0,0,0,0,0,0,0,0,0,BABY-CRADLE,"newborn, infant, child, unborn, birth, girl","newborn, infant, toddler, child, mother",0,0,0,0.521579146,0.43887651,0.394741833,0.351930141,0.251219004,0.288008153,0.214164883,0.220434383,0.233068332
bakery,3947,COFFEE,SHOP,locative,coordinate,locative ,S1,CAFE,"coffee,cafe,shop",0,,CAFE,,"coffee,tea,bag,groceries,shop","shop,keeper,grounds,coffee",0,0,"coffee,orange juice,orchard,pot,dishes,laundry,tide,waves,pebble,jewel,expensive,inexpensive,sale,shop",,0,,-0.00129,0.19,0.236258611,4,3,13,2,11,"coffee,jug,quench,tangy,tart,food,bouillon,plenty,much,money,purchase,shop",locative ,food,2,0,1,45,1,1,"caf, bakery, latte, Mystic_Monk, cappuccino",AA,1,2019-10-28_00h36.39.041,CodenamesAssociation,3.1.5,60,,,1,0,100,75,1,99,0.215057825,"counter, cup, ortega, waiter, steaming",0,0.40724564,0.5431385,0,0,0,0,0,1,0,0,0,0,0,COFFEE-SHOP,"store, grocery, caf, restaurant, bakery","caf, tea, espresso, cappuccino, roastery",1,0,1,0.570003271,0.465252846,0.643130422,0.475504905,0.539207101,0.697104216,0.453787208,0.375732809,0.589116931
NA,14997,HONEY,PLASTIC,NA,NA,locative ,S1,,"honey,pot,lid,plastic",0,,,,"honey,tea,bag,container,plastic","plastic,bag,groceries,milk,honey",0,0,"honey,syrup,maple,stem,pot,dishes,laundry,tide,waves,pebble,jewel,expensive,inexpensive,wager,owe,occupation,profession,student,lesson,learn,intellect,intelligent,foolish,silly,amuse,cheerful,glad,upset,sob,kleenex,flu,infection,operation,wound,bullet,tin,plastic",,0,,-0.001451,0.08,0.154897496,4,4,36,3,14,"honey,icing,maple,orchard,berry,tomato,seasoning,food,bouillon,plenty,much,money,employment,proposal,plastic",locative ,food,4,3,2,308,0,3,"margarine_tub, peppermint_candies, sugary_syrup, peppermint_sticks, muslin_cloth",AA,1,2019-10-28_00h36.39.041,CodenamesAssociation,3.1.5,60,,,1,0,100,61,1,99,0.031394887,"thermoplastic, maeterlinck, bees, resins, polyethylene",0,,,0,0,0,0,0,0,1,1,1,1,1,HONEY-PLASTIC,"milk, bottles, bag, butter, cans","wax, bees, milk, bags, silicone",0,0,0,0.351065427,-0.07237879,-0.014215529,0.290923595,0.006788846,-0.020634375,0.139984503,-0.058916129,-0.024545789
NA,1180,KING,CROWN,NA,NA,attributive,S1,"EMPEROR,PRINCE,PRINCESS,QUEEN,ROYAL,THRONE","king,crown",0,"QUEEN,ROYAL,THRONE",PRINCE,QUEEN,"king,crown","crown,king",0,0,"king,palace,crown",PALACE,0,,0.124331,0.48,0.319277406,1,1,2,1,20,"king,oligarchy,whom,adverb,grammar,terms,fee,money,million,plenty,bouillon,food,gourmet,good,manners,bad,regret,sorrow,corpse,head & shoulders,crown",attributive,people,45,0,2,2,1,0,"queen, throne, champ, title, monarch",AA,1,2019-10-28_00h36.39.041,CodenamesAssociation,3.1.5,60,,,1,0,100,5,1,99,0.194743566,"royal, wueen, skyclear, pelias, majesty",0,,,0,0,0,0,0,0,1,1,1,1,1,KING-CROWN,"prince, queen, throne, monarch, kingdom ","queen, monarch, prince, royal, throne",1,1,1,0.573507726,0.051962186,-0.052200632,0.447308779,-0.084324185,0.053190286,0.52248615,-0.054058201,0.029942257
carve,4666,PUMPKIN,HALLOWEEN,argument,temporal,temporal,S1,,"pumpkin,halloween",0,,,,"pumpkin,halloween","halloween,pumpkin",0,0,"pumpkin,pecan,crumb,shortcake,pudding,frosting,frost,chill,cool,beverage,brandy,rum,throw up,yuck,crude,ghoul,halloween",,0,,-0.001115,0.53,0.410718381,1,1,16,1,10,"pumpkin,lice,scalp,cut,mower,lumber,house,chimney,soot,spook,halloween",temporal,plant,2,1,2,0,45,0,"jack_o'_lantern, spooktacular, apple_bobbing, boo_tiful, jack_o'_lanterns",AA,1,2019-10-28_00h36.39.041,CodenamesAssociation,3.1.5,60,,,1,0,100,83,1,99,0.427147483,"moundshroud, skeleton, treaters, fong, wrathfull",0,0.13786426,0.06951596,0,0,0,0,0,0,0,0,0,0,0,PUMPKIN-HALLOWEEN,"christmas, thanksgiving, candy, cake, pie","jack-o-lanterns, spooky, trick-or-treating, christmas, turnip",0,0,0,0.501695931,0.337886512,0.171150818,0.479124457,0.24225691,0.198113114,0.360039622,0.30178085,0.07728494
nurse,5234,DOCTOR,HOSPITAL,coordinate,locative,locative ,S1,"CHART,CLINIC,HEALTH,HELP,ILL,ILLNESS,MEDICAL,MEDICATION,MEDICINE,NURSE,OPERATE,OPERATION,ORDERLY,PATIENT,SICK,SURGEON,SURGERY,SYRINGE,THERAPY,TREATMENT,VISIT","doctor,hospital",1,"CLINIC,NURSE,PATIENT,SICK","HEALTH,ILLNESS,MEDICINE,NURSE,PATIENT,SICK,SURGEON","HELP,ILL,NURSE,PATIENT,SICK","doctor,hospital","hospital,doctor",1,1,"doctor,clinic,hospital",CLINIC,0,,0.276967,0.71,0.514323771,1,1,2,1,21,"doctor,smart,clever,cheerful,joyous,celebrate,bartender,pub,drink,slurp,food,gourmet,good,manners,bad,regret,sorrow,pain,advil,tylenol,medication,hospital",locative ,people,2,0,0,47,0,1,"physician, nurse, surgeon, medical, clinic",AA,1,2019-10-28_00h36.39.041,CodenamesAssociation,3.1.5,60,,,1,0,100,65,1,99,0.525218858,"clinic, mortem, provident, painkillers, pneumococcal",0,0.6319523,0.50398934,0,0,0,0,0,1,1,0,1,1,1,DOCTOR-HOSPITAL,"medical, physician, clinic, nurse, patient","physician, nurse, surgeon, clinic, patient",1,1,1,0.625430226,0.696075022,0.643104494,0.408963144,0.494650602,0.575484693,0.568318903,0.585981786,0.538214922
darkness,4248,CANDLE,NIGHT,temporal,temporal,temporal,S1,FLASHLIGHT,"candle,flashlight,night",0,,FLASHLIGHT,,"candle,light,dark,night","night,train,whistle,blow,candle",0,0,"candle,blaze,heater,cool,beverage,brandy,rum,throw up,disgusting,nasty,horrible,scary,scream,holler,speak,in,closet,off,night",,0,,-0.000662,0.41,0.140948683,3,4,18,2,4,"candle,glow,dusk,dawn,night",temporal,manmade,2,1,2,1,43,1,"evening, afternoon, morning, Saturday, pumpkin_lantern",AA,1,2019-10-28_00h36.39.041,CodenamesAssociation,3.1.5,60,,,1,0,100,85,1,99,0.858553039,"sleep, awoke, midnight, tonight, woke",0,0.26859593,0.25131893,0,0,0,0,0,0,0,0,0,0,0,CANDLE-NIGHT,"evening, lit, lights, afternoon, morning","evening, day, lights, lamp, morning",0,0,0,0.452961713,0.474358618,0.592972279,0.338148981,0.347739577,0.430298626,0.204991937,0.205054104,0.442829579
hide,2784,RABBIT,HOLE,attributive,locative,locative ,S1,"FOX,MOLE","rabbit,hole",0,MOLE,FOX,,"rabbit,fox,hole","hole,rabbit",0,0,"rabbit,furry,hostility,angry,glad,cheerful,amuse,silly,foolish,intelligent,intellect,learn,lesson,student,profession,occupation,pay,debt,expense,expensive,jewel,pebble,waves,tide,laundry,dishes,pot,stem,seed,soil,hole",,0,,-0.002437,0.36,0.209241241,2,1,30,1,9,"rabbit,stew,food,slurp,drink,thirst,water,pool,tie,hole",locative ,animal,0,2,2,45,0,1,"puking_O'Hair, makeable_putt, fox, greenside_trap, squirrel",AA,1,2019-10-28_00h36.39.041,CodenamesAssociation,3.1.5,60,,,1,0,100,76,1,99,0.011039249,"tum, wili, wasawusu, badamin, mek",0,0.17839347,0.09758699,0,0,0,0,0,0,0,0,0,0,0,RABBIT-HOLE,"putt, birdie, par-5, woods, rat, mouse","bunny, hidey, rat, hare, pigeon",0,1,0,0.537640929,0.314204216,0.350701988,0.376385987,0.317072898,0.236126646,0.276012063,0.156877995,0.235570475
soar,7931,PILOT,AIR,attributive,locative,locative ,S1,"AIRPLANE,FLY,HELICOPTER,PLANE","pilot,plane,air",0,"FLY,PLANE",PLANE,"FLY,PLANE","pilot,plane,air","air,fly,airplane,pilot",0,0,"pilot,airport,soar,air",,1,,0.170588,0.26,0.291651249,2,3,3,2,12,"pilot,plane,transportation,taxi,cab,money,million,plenty,groceries,broth,uncooked,inhale,air",locative ,people,0,1,1,47,0,1,"traffic_controllers_ATCs, performing_aerobatic_maneuvers, Planes_collide, Sergei_Bogdan, sulfurous_smell_wafter",AA,1,2019-10-28_00h36.39.041,CodenamesAssociation,3.1.5,60,,,1,0,100,66,1,99,0.321071018,"gliders, altitudes, balloon, montgolfier, aviators",0,0.1256498,0.17353402,0,1,0,0,0,0,0,0,0,0,0,PILOT-AIR,"flight, aircraft, jet, plane, flying","flying, aircraft, airplane, cockpit, flight",0,0,0,0.470840096,0.249183059,0.307038546,0.433745861,0.28514269,0.209732115,0.507137358,0.053620346,0.133793622
ant,4983,SPIDER,FLY,coordinate,attributive,argument,S1,"BUG,INSECT,ROACH","spider,fly",0,"BUG,ROACH","BUG,INSECT","BUG,INSECT","spider,fly","fly,roach,spider",0,0,"spider,mosquito,ant,fly",,1,,0.131205,0.32,0.17001003,1,2,3,1,18,"spider,midget,mister,grandpa,chapel,honesty,truthful,gourmet,food,bouillon,plenty,much,money,cab,taxi,transportation,plane,aircraft,fly",argument,animal,1,41,5,1,0,2,"spin_webs, arachnid, dragonfly, preying_mantis, scorpion",AA,1,2019-10-28_00h36.39.041,CodenamesAssociation,3.1.5,60,,,1,0,100,28,1,99,0.603782752,"wings, flying, gliders, flight, balloonists",0,0.5640507,0.07546212,0,1,0,0,0,1,0,0,0,0,0,SPIDER-FLY,"butterflies, butterfly, monkey, insect, birds","swatter, bluebottle, arachnid, wasp, tarantula",0,1,1,0.402011335,0.578595757,0.370337188,0.334416121,0.523312628,0.32243523,0.222992152,0.368717104,0.158343419
fingers,5181,HANDS,PALM,attributive,attributive,attributive,S1,,"hands,face,hand,palm",0,,,,"hands,feet,inch,meter,reader,palm","palm,hand,shake,hands",0,0,"hands,off,closet,open,near,distance,inch,stub,arm,palm",,0,,-0.000811,0.41,0.434634656,5,3,9,3,17,"hands,whiskers,shears,jigsaw,lumber,tree,orchard,berry,tomato,seasoning,oregano,tapioca,tangy,rum,booze,slumber,hammock,palm",attributive,body_part,44,0,2,4,0,0,"fingers, fingertips, tightly_clasped, cupped_gently, knees",AA,1,2019-10-28_00h36.39.041,CodenamesAssociation,3.1.5,60,,,1,0,100,15,1,99,0.887620696,"fingers, knees, shoulders, arms, kneel",1,0.5098684,0.47146904,0,0,0,0,1,1,0,0,0,0,0,HANDS-PALM,"fingers, beach, your, touch, holding","fingers, ungloved, cupped, fingertips, fist",1,1,1,0.51811415,0.687933505,0.572439253,0.280803829,0.57685256,0.371398032,0.209140241,0.60120374,0.269484431
pear,2316,APPLE,ORANGE,coordinate,coordinate,coordinate,S1,"BANANA,CARROT,FRUIT,GRAPE,GROVE,JUICE,LEMON,ORCHARD,PEEL,PRODUCE,RED,SLICE,TANGERINE,TREE","apple,orange",0,"FRUIT,JUICE,LEMON,TANGERINE","BANANA,FRUIT,RED","FRUIT,RED,TREE","apple,orange","orange,apple",0,0,"apple,citrus,orange","CITRUS,ORCHARD",0,,0.193274,0.42,0.39203459,1,1,2,1,6,"apple,vegetable,broth,seasoning,tomato,berry,orange",coordinate,plant,2,1,44,0,0,3,"peach, pear, olive, berry, apricot",AA,1,2019-10-28_00h36.39.041,CodenamesAssociation,3.1.5,60,,,1,0,100,45,1,99,0.000773227,"peel, limburger, slipcover, blossoms, yellow",0,0.6450697,0.36432695,0,0,0,0,0,1,0,0,0,0,0,APPLE-ORANGE,"juice, peach, fruit, lemon, citrus","peach, fruit, yellow, tangerine, pear",0,1,1,0.555810213,0.709553123,0.496261686,0.355765074,0.540902078,0.360216707,0.320601821,0.411697716,0.210691079
egg,3083,RABBIT,EASTER,attributive,temporal,temporal,S1,BUNNY,"rabbit,easter",0,BUNNY,BUNNY,BUNNY,"rabbit,easter","easter,rabbit",0,0,"rabbit,furry,hostility,angry,upset,weep,child,female,affair,wed,groom,hare,easter",,0,,0.056482,0.05,0.192800924,1,1,12,1,11,"rabbit,stew,food,gourmet,good,worse,worst,misery,grief,hurt,shatter,easter",temporal,animal,1,2,3,2,41,0,"bunny, reindeers, jenny, squirrel, pig",AA,1,2019-10-28_00h36.39.041,CodenamesAssociation,3.1.5,60,,,1,0,100,87,1,99,0.016069413,"fox, mitten, pooh, tum, hallo",0,0.39177978,0.2795514,0,0,0,0,0,0,0,0,0,0,0,RABBIT-EASTER,"bunny, christmas, holidays, thanksgiving, eggs","bunny, easter, eggs, hare, chicken",1,1,0,0.356618494,0.492514074,0.573080242,0.265113264,0.363772362,0.447006971,0.233313575,0.32876265,0.367840588
bush,6883,BEAR,BERRY,locative,locative,argument,S1,TREE,"bear,tree,berry",0,TREE,TREE,TREE,"bear,claw,nail,screw,nuts,berry","berry,cherry,pit,trap,bear",0,0,"bear,vet,pet,puppy,handsome,attractive,woman,child,tantrum,upset,glad,cheerful,amuse,silly,foolish,intelligent,intellect,learn,lesson,student,profession,occupation,pay,debt,expense,expensive,jewel,pebble,waves,tide,laundry,dishes,pot,orchard,berry",,0,,0.058269,0.1,0.192459345,5,4,34,2,12,"bear,huge,husky,mister,grandpa,chapel,honesty,truthful,gourmet,food,seasoning,tomato,berry",argument,animal,3,42,2,0,0,3,"fruit, grape, chokecherries, pear, bruin",AA,1,2019-10-28_00h36.39.041,CodenamesAssociation,3.1.5,60,,,1,0,100,23,1,99,0.190841968,"grizzly, groasle, thickset, beeping, forepaw",0,0.15699169,0.2978698,0,0,0,0,0,0,0,0,0,0,0,BEAR-BERRY,"fruit, cherry, stearns, grizzly, wolf","fruit, grizzly, bore, strawberry, brown",0,0,0,0.377747625,0.237634093,0.533787727,0.297631741,0.164692402,0.311315656,0.179734439,0.139979959,0.057044216
birthday,5250,CAKE,CANDLE,temporal,temporal,attributive,S1,BIRTHDAY,"cake,birthday,candle",1,,BIRTHDAY,,"cake,birthday,candle","candle,burn,cut,slice,cake",1,1,"cake,dessert,frosted,frost,chill,warm,hotter,inferno,candle",,0,,-0.001179,0.17,0.33885029,2,4,8,2,7,"cake,dessert,shortcake,spicy,seasoning,hot,blaze,candle",attributive,food,43,3,1,1,0,2,"votives, peach_pie, pizzelles, wreath, rolled_fondant",AA,1,2019-10-28_00h36.39.041,CodenamesAssociation,3.1.5,60,,,1,0,100,18,1,99,0.52222539,"leavener, unshortened, chiffon, baking, gluten",0,0.3318351,0.21651831,1,0,1,0,0,0,1,0,0,1,0,CAKE-CANDLE,"chocolate, dessert, bread, butter, frosting","cupcake, tealight, frosting, chocolate, biscuits, lamp",0,0,0,0.446709037,0.575305521,0.370139688,0.469861627,0.428723991,0.31136024,0.341893137,0.394276202,0.258734882
scary,8197,CLOWN,BIG,attributive,attributive,attributive,S1,BALLOON,"clown,balloon,big",0,,BALLOON,,"clown,circus,elephant,big","big,dog,animal,circus,clown",0,0,"clown,amuse,silly,foolish,intelligent,intellect,learn,lesson,student,profession,occupation,pay,debt,expense,expensive,jewel,pebble,waves,tide,laundry,dishes,pot,cobbler,shortcake,pudding,frosting,frost,chill,cool,beverage,brandy,rum,throw up,disgusting,nasty,terrific,excellent,great,big",,0,,-0.000951,0.34,0.166591048,3,4,38,2,15,"clown,amuse,celebration,intoxicate,rum,tangy,tart,food,gourmet,truthful,honesty,chapel,grandpa,mister,husky,big",attributive,people,44,2,2,0,0,2,"huge, gigantic, goofy, goodie_goodie, monster",AA,1,2019-10-28_00h36.39.041,CodenamesAssociation,3.1.5,60,,,1,0,100,13,1,99,0.636266845,"mccool, cucullan, bang, bigger, biggest",0,0.25760168,0.3525957,0,0,0,0,0,0,0,0,0,0,0,CLOWN-BIG,"kid, like, guys, big, monster","giant, huge, gigantic, bigger, large, scary",0,1,0,0.347917259,0.442792088,0.599964142,0.281024665,0.439106733,0.395762414,0.184294119,0.258996904,0.268678695
wood,5068,HAMMER,NAIL,argument,argument,argument,S1,"CHISEL,HEAD,SCREW,SCREWDRIVER,SPIKE,TACK","hammer,nail",0,SCREW,"CHISEL,HEAD,SCREW,SCREWDRIVER,SPIKE,TACK",HEAD,"hammer,nail","nail,hammer",0,0,"hammer,chisel,scissors,toenail,nail",,0,,0.15378,0.5,0.421976209,1,1,4,1,1,"hammer,nail",argument,instrument,5,41,2,0,2,0,"coffin_Sosman, chisel, sickle_emblem, thrash, splitting_maul",AA,1,2019-10-28_00h36.39.041,CodenamesAssociation,3.1.5,60,,,1,0,100,27,1,99,0.973908727,"individualities, firebrick, peen, chisel, screwdriver",0,0.23499426,0.2725582,0,0,0,0,0,0,0,0,0,0,0,HAMMER-NAIL,"claw, thrower, bolt, metal, tooth","ballpeen, chisel, sledgehammer, anvil, mallet, claw",0,0,0,0.636554539,0.43933925,0.429306209,0.461679041,0.298450112,0.364040047,0.43855682,0.176973835,0.234768271
pizza cutter,7832,SCISSORS,KNIFE,coordinate,coordinate,coordinate,S1,"CUT,SCALPEL,SHARP","scissors,knife",0,CUT,"CUT,SHARP","CUT,SHARP","scissors,knife","knife,cut,scissors",0,0,"scissors,razor,knife","AX,RAZOR,SWORD",0,,0.276886,0.33,0.591640949,1,2,2,1,12,"scissors,paper,printing,book,hymn,prayer,christ,chapel,despise,disagreement,war,dagger,knife",coordinate,instrument,1,0,47,0,0,2,"box_cutter, razor_blade, machete, screwdriver, samurai_sword",AA,1,2019-10-28_00h36.39.041,CodenamesAssociation,3.1.5,60,,,1,0,100,41,1,99,0.091372839,"cut, cutterhead, blade, planer, honing",0,0.3135588,0.2943137,0,0,0,0,0,0,0,0,0,0,0,SCISSORS-KNIFE,"blade, scalper, screwdriver, axe, machete","scalpel, penknife, shears, blade, black-handled, machete",0,0,0,0.654204667,0.299408383,0.362098143,0.608782947,0.335925191,0.344700707,0.543790936,0.142522281,0.284067188
twig,4398,TREE,BRANCH,attributive,coordinate,attributive,S1,"LEAF,LIMB,OLIVE,STEM,STICK,TWIG","tree,branch",1,"LEAF,LIMB,STEM,STICK,TWIG","LEAF,LIMB","LEAF,LIMB","tree,branch","branch,tree",1,1,"tree,trees,lawn,marijuana,smoke,stench,parsley,cauliflower,sandwich,dinner,delicious,dessert,shortcake,cobbler,pot,stem,branch",,0,,0.130338,0.52,0.33569479,1,1,16,1,1,"tree,branch",attributive,plant,45,0,1,1,1,2,"sapling, conifer, shrub, willow_oak, tress",AA,1,2019-10-28_00h36.39.041,CodenamesAssociation,3.1.5,60,,,1,0,100,8,1,99,0.407975295,"trunk, squirrel, limb, oak, pettishly",0,0.5124711,0.204489,0,0,0,0,0,0,1,0,1,0,0,TREE-BRANCH,"oak, pine, trunk, willow, garden","twigs, trunk, sapling, tress, leaf",0,1,0,0.595187843,0.639552355,0.565252125,0.336308867,0.575221777,0.285004526,0.291977137,0.334452063,0.147959664
oven,3249,BAKER,APRON,argument,idiosyncratic,attributive,S1,"CHEF,COOK","baker,chef,apron",0,"CHEF,COOK","CHEF,COOK","CHEF,COOK",NOT FOUND,,0,0,"baker,dessert,yummy,gourmet,apron",,0,,0.141709,0.2,0.223775953,-1,,4,2,8,"baker,food,slurp,drink,quench,towel,bathtub,rake,apron",attributive,people,44,2,2,1,1,0,"cake_decorator, pastry, croissant_dough, butcher, cobbler",AA,1,2019-10-28_00h36.39.041,CodenamesAssociation,3.1.5,60,,,1,0,100,10,1,99,0.90661173,"dough, pans, loaves, kendrick, welladay",0,0.3514247,0.34106985,0,0,0,0,0,0,0,0,0,0,0,BAKER-APRON,"botts, cook, kitchen, mckenzie, mrs., robinson","bakery, pastry, cakes, oven, chef, loaf",0,1,0,0.343569696,0.55710721,0.468691587,0.188830808,0.208144516,0.33427316,0.042662852,0.075163715,0.197605893
rooster,4599,CHICKEN,FARM,coordinate,locative,locative ,S1,"BARN,HEN,ROOSTER","chicken,farm",1,BARN,"HEN,ROOSTER",,"chicken,rooster,farm","farm,chicken",1,1,"chicken,meal,dinner,delicious,dessert,shortcake,cobbler,orchard,seed,agriculture,plow,farm",,0,,-0.001785,0.17,0.344622999,2,1,11,1,10,"chicken,broth,seasoning,tomato,berry,orchard,tree,lumber,termite,hen,farm",locative ,animal,1,1,2,45,0,1,"poultry, meat, pastured_poultry, pastured_pork, pig",AA,1,2019-10-28_00h36.39.041,CodenamesAssociation,3.1.5,60,,,1,0,100,73,1,99,0.466417317,"farmer, tractors, silage, harrows, harvester",0,0.44382024,0.31316423,0,0,1,0,0,0,1,0,0,1,0,CHICKEN-FARM,"meat, poultry, dairy, beef, pork","poultry, dairy, pig, barn, meat",0,0,0,0.508334816,0.648395538,0.422533751,0.352808326,0.496564716,0.277914107,0.32905066,0.233032018,0.062433053
pot,3784,CHEF,PAN,argument,coordinate,attributive,S1,"COOK,FOOD","chef,food,pan",0,COOK,"COOK,FOOD","COOK,FOOD","chef,cook,fry,pan","pan,cook,chef",0,0,"chef,diner,dinner,delicious,dessert,baker,bake,skillet,pan",,0,,0.225817,0.25,0.16392763,3,2,8,2,2,"chef,macaroni,pan",attributive,people,43,4,2,1,0,0,"pasta_al_dente, wok, cook, Scrape_batter, risotto",AA,1,2019-10-28_00h36.39.041,CodenamesAssociation,3.1.5,60,,,1,0,100,19,1,99,0.935812235,"oven, cooked, custard, syneresis, overbaked",0,0.10082231,0.37061852,0,0,0,0,0,0,0,0,0,0,0,CHEF-PAN,"pastry, cooking, dish, grill, restaurant","cooking, wok, kitchen, restaurant, dish",0,0,0,0.365694553,0.364889294,0.516551852,0.179317236,0.330400616,0.276470602,0.195014507,0.200615779,0.340860903
heart,3932,BONE,MUSCLE,coordinate,coordinate,coordinate,S1,"ARM,BODY,HARD,JOINT,LEG,SHOULDER,TISSUE","bone,muscle",0,JOINT,"BODY,LEG","ARM,BODY,HARD,TISSUE","bone,muscle","muscle,bone",0,0,"bone,sprain,injury,stab,operation,infection,flu,kleenex,sob,upset,glad,cheerful,amuse,silly,foolish,intelligent,intellect,learn,lesson,student,profession,occupation,pay,debt,expense,expensive,jewel,pebble,waves,tide,laundry,dishes,pot,cobbler,shortcake,pudding,frosting,frost,chill,warm,heater,blaze,fuel,powerful,muscle",,0,,0.194074,0.49,0.497934788,1,1,44,1,16,"bone,marrow,sparrow,robin,ketchup,tomato,seasoning,food,gourmet,truthful,honesty,chapel,grandpa,uncle,man,courage,muscle",coordinate,body_part,4,1,41,2,0,2,"cartilage, tendon, multifidus, joints_ligaments, pectoralis_major",AA,1,2019-10-28_00h36.39.041,CodenamesAssociation,3.1.5,60,,,1,0,100,52,1,99,0.987297781,"extensor, tendons, flexor, biceps, skeletal",0,0.31957346,0.30768728,0,0,0,0,0,0,0,0,0,0,0,BONE-MUSCLE,"tissue, cartilage, thigh, calf, tendon","tissue, tendon, skeletal, cartilage, marrow",0,0,0,0.586361468,0.470308989,0.496338695,0.498499632,0.394194305,0.363625258,0.497927219,0.436416388,0.403565377
sugar,5467,PIE,OVEN,attributive,idiosyncratic,locative ,S1,"BAKE,BAKED,BAKER,FOOD","pie,baker,oven",0,BAKE,BAKE,"BAKE,FOOD","pie,bake,oven","oven,bake,pie",0,0,"pie,pastry,baker,bake,microwave,oven",,0,,0.144372,0.52,0.28027305,2,2,5,2,4,"pie,baker,food,roast,oven",locative ,food,0,2,2,46,0,0,"greased_casserole_dish, casserole, gratin_dish, bundt_pan, greased_pan",AA,1,2019-10-28_00h36.39.041,CodenamesAssociation,3.1.5,60,,,1,0,100,69,1,99,0.024503537,"baked, cooked, cooking, salad, baking",0,0.24294627,0.16012764,0,0,0,0,0,0,0,0,0,0,0,PIE-OVEN,"baked, baking, cake, casserole, crust, tart","cakes, baking, baked, kitchen, pastry, loaf",0,0,0,0.433623493,0.361098021,0.412914485,0.415456086,0.377529263,0.295133173,0.417959809,0.324549168,0.208157703
fly,3498,FROG,TONGUE,attributive,attributive,attributive,S1,LIZARD,"frog,lizard,tongue",0,,LIZARD,,"frog,lizard,tongue","tongue,pink,green,frog",0,0,"frog,spider,mosquito,insect,annoy,irritate,tantrum,upset,glad,cheerful,amuse,silly,foolish,intelligent,intellect,learn,lesson,student,profession,occupation,pay,debt,expense,expensive,jewel,pebble,waves,tide,laundry,dishes,pot,cobbler,shortcake,pudding,frosting,frost,chill,cool,beverage,brandy,rum,throw up,disgusting,nasty,awful,aright,mistake,answer,reply,communicate,tongue",,0,,-0.001543,0.08,0.281238705,2,3,50,2,10,"frog,plant,shrub,stem,orchard,berry,tomato,seasoning,food,chew,tongue",attributive,animal,45,2,1,0,0,1,"toad, lizard, critter, salamander, monkey",AA,1,2019-10-28_00h36.39.041,CodenamesAssociation,3.1.5,60,,,1,0,100,4,1,99,0.829748722,"toad, bong, tadpole, pollywogs, freddy",0,0.14226028,0.09090965,0,0,0,0,0,0,0,0,0,0,0,FROG-TONGUE,"snake, toad, mouth, cheek, monkey","lizard, toad,amphibian, snake, bullfrog",0,0,0,0.374071985,0.302916795,0.319508374,0.297931701,0.276950419,0.219669074,0.292964965,0.113023996,0.085475817
kitchen,6018,CHEF,FOOD,locative,locative,argument,S1,"BAKER,COOK,COOKBOOK,COOKING,GOURMET,PARSLEY,PASTRY,SALAD,WAITER","chef,food",0,,"COOK,SALAD,WAITER",,"chef,food","food,health,plan,prepare,cook,chef",0,0,"chef,diner,dinner,food",,0,,-0.000994,0.35,0.306242257,1,5,3,1,1,"chef,food",argument,people,3,41,2,1,1,3,"cuisine, gourmet, culinary, restaurant, cooking",AA,1,2019-10-28_00h36.39.041,CodenamesAssociation,3.1.5,60,,,1,0,100,26,1,99,0.115343712,"hunger, kell, gullit, eaten, digesting",0,0.5073916,0.34705758,0,0,0,0,0,0,0,0,0,0,0,CHEF-FOOD,"restaurant, cooking, gourmet, cuisine, kitchen","restaurant, cooking, cuisine, kitchen, culinary",1,1,0,0.483095527,0.650573134,0.580729663,0.38512212,0.488772124,0.427308381,0.318020999,0.520939827,0.418444574
wrench,7381,AX,METAL,coordinate,hierarchical,attributive,S1,WOOD,"ax,wood,metal",0,WOOD,WOOD,WOOD,"ax,wood,metal","metal,wood,chop,ax",0,0,"ax,scissors,operation,wound,bullet,aluminum,metal",,0,,0.057398,0.08,0.207195446,2,3,6,2,12,"ax,hatchet,brawl,disagreement,despise,honesty,truthful,gourmet,food,skillet,foil,aluminum,metal",attributive,instrument,48,0,2,0,0,0,"steel, longbow_arrows, splitting_maul, claw_hammers, saws",AA,1,2019-10-28_00h36.39.041,CodenamesAssociation,3.1.5,60,,,1,0,100,1,1,99,0.699235006,"solder, ferrous, noferrouds, sheetmetal, welded",0,0.37295327,0.15240452,0,0,0,0,0,0,0,0,0,0,0,AX-METAL,"knives, knife, steel, iron, blade, scissors","steel, iron, brass, metallic, aluminum",0,0,0,0.374055207,0.419211596,0.383143693,0.239847362,0.332553536,0.314251095,0.206810057,0.232832178,0.081269205
pain,5517,FEET,NAILS,attributive,attributive,attributive,S1,HANDS,"feet,hands,nails",0,HANDS,HANDS,HANDS,"feet,hands,nails","nails,hands,feet",0,0,"feet,leg,distance,near,shut,whisper,yell,terror,ghoul,crude,yuck,throw up,rum,brandy,beverage,cool,chill,frost,frosted,dessert,baker,bake,microwave,oven,detergent,tide,waves,pebble,jewel,expensive,inexpensive,wager,owe,occupation,profession,student,lesson,learn,intellect,intelligent,foolish,silly,amuse,cheerful,glad,upset,sob,kleenex,flu,infection,operation,scissors,toenail,nails",,0,,0.094439,0.19,0.233802706,2,2,53,2,8,"feet,web,sticky,plaster,house,lumber,jigsaw,shears,nails",attributive,body_part,44,0,2,1,0,3,"foot, troweling, 6feet, wood_dowels, inches",AA,1,2019-10-28_00h36.39.041,CodenamesAssociation,3.1.5,60,,,1,0,100,14,1,99,0.09895151,"toenail, toes, soles, synchronously, sigurd",0,0.11154264,0.11767404,0,0,0,0,0,0,0,0,0,0,0,FEET-NAILS,"inch, foot, meters, legs, beneath","foot, inches, fingernails, legs, fingers, toes",0,0,0,0.505497813,0.383591831,0.373176813,0.412951201,0.198195979,0.32046634,0.269885331,0.187419325,0.147809014
party,8766,CHEESE,WINE,temporal,temporal,coordinate,S1,FRANCE,"cheese,wine",0,,FRANCE,,"cheese,wine","wine,cheese",0,0,"cheese,bake,baker,dessert,frosted,frost,chill,cool,beverage,brandy,booze,wine",,0,,-0.001851,0.22,0.52352196,1,1,11,1,4,"cheese,tapioca,drink,brandy,wine",coordinate,food,2,2,41,2,0,3,"chardonnay, pinot_noir, ros, camembert, merlot",AA,1,2019-10-28_00h36.39.041,CodenamesAssociation,3.1.5,60,,,1,0,100,55,1,99,0.504809577,"beer, fermentation, sip, drank, bread",0,0.024867348,0.10653489,0,0,0,0,0,0,0,0,0,0,0,CHEESE-WINE,"dessert, bread, tasting, grape, chocolate","beer, grapes, bread, brandy, limburger",0,0,0,0.567155242,0.307825208,0.448781222,0.536769986,0.152192071,0.167867586,0.454814523,0.021678504,0.096428834
goat,3464,COW,MILK,coordinate,attributive,argument,S1,"DAIRY,DIARY,GOAT","cow,milk",1,DAIRY,"DAIRY,DIARY,GOAT",,"cow,milk","milk,cow",1,1,"cow,ox,shift,interstate,pedal,pot,cobbler,shortcake,pudding,frosting,frost,chill,cool,milk",,0,,-0.001283,0.6,0.434134722,1,1,13,1,6,"cow,hog,swan,waves,water,quart,milk",argument,animal,5,38,3,2,2,0,"dairy, bovine, cattle, goat, pig",AA,1,2019-10-28_00h36.39.041,CodenamesAssociation,3.1.5,60,,,1,0,100,39,1,99,0.480615037,"milking, yogurt, dairy, milkers, fondue, cheese",0,0.6359612,0.38371748,0,0,0,0,0,1,1,0,0,1,0,COW-MILK,"dairy, meat, beef, goat, cattle","dairy, milch, udders, bovine, goat",1,1,1,0.669132173,0.694360793,0.545704544,0.540091753,0.654408991,0.532215834,0.480836391,0.562648296,0.480367571
mass,4617,CHURCH,SUNDAY,temporal,temporal,temporal,S1,PSALM,"church,sunday",0,,PSALM,,"church,sunday","sunday,church",0,0,"church,christian,prayer,hymn,choir,sing,yell,terror,ghoul,crude,yuck,throw up,rum,brandy,beverage,cool,chill,frost,frosted,dessert,baker,bake,stove,above,leap,start,semester,week,sunday",,0,,-0.001528,0.58,0.165411428,1,1,28,1,14,"church,protestant,christian,truthful,gourmet,food,bouillon,plenty,much,money,fee,text,lesson,tuesday,sunday",temporal,building,1,1,1,0,47,0,"baptist, congregation, parishioners, anglican, christian",AA,1,2019-10-28_00h36.39.041,CodenamesAssociation,3.1.5,60,,,1,0,100,80,1,99,0.15121852,"catholic, anabaptists, zwinglians, zwing, rebaptizers",0,0.21916047,0.078529224,0,0,0,0,0,0,0,0,0,0,0,CHURCH-SUNDAY,"Saturday, Friday, Monday, Thursday, Wednesday, Tuesday, weekend, atholic","Saturday, pastor, chapel, catholic, congregation",0,0,0,0.468533576,0.399265289,0.401620299,0.311837584,0.236584529,0.319303423,0.288734019,0.34399423,0.338145047
picking,5500,APPLE,AUTUMN,argument,temporal,temporal,S1,TREE,"apple,tree,autumn",0,TREE,TREE,TREE,"apple,peach,pit,fall,autumn","autumn,brown,green,apple",0,0,"apple,orchard,pot,dishes,laundry,tide,waves,beach,autumn",,0,,0.079763,0.27,0.203024819,4,3,8,2,9,"apple,vegetable,broth,seasoning,tomato,berry,orchard,stem,leaf,autumn",temporal,plant,0,1,0,0,46,3,"pear, berry, lily_bulb, fruit, honeycrisp",AA,1,2019-10-28_00h36.39.041,CodenamesAssociation,3.1.5,60,,,1,0,100,81,1,99,0.330475413,"blossoms, bloom, cherries, spring, maples",0,0.15064536,0.11937116,0,0,0,0,0,0,0,0,0,0,0,APPLE-AUTUMN,"spring, summer, harvest, winter, fall","spring, summer, pear, fruit, winter",0,0,0,0.38866806,0.344339192,0.319763929,0.256311357,0.303699136,0.242361665,0.216673449,0.229937896,0.192177951
knife,3182,PLATE,FORK,coordinate,coordinate,coordinate,S1,"EAT,FOOD,NAPKIN,SILVERWARE,SPOON","plate,fork",0,"EAT,FOOD,SPOON","SILVERWARE,SPOON","EAT,FOOD,SPOON","plate,fork","fork,utensil,silverware,plate",0,0,"plate,fork","KITCHEN,NAPKIN,SILVERWARE,SPATULA",0,,0.305542,0.34,0.30358839,1,3,1,1,1,"plate,fork",coordinate,manmade,1,1,43,2,2,1,"stir_fried_greens, wooden_skewer, Invert_onto, Arrange_lettuce, pancake_turner",AA,1,2019-10-28_00h36.39.041,CodenamesAssociation,3.1.5,60,,,1,0,100,47,1,99,0.169639101,"flatware, dampener, tectonics, asthenosphere, shish, rarebits",0,0.18307683,0.3765174,0,0,0,0,0,0,0,0,0,0,0,PLATE-FORK,"spoon, batter, river, mound, bottom","spoon, dish, tray, tines, knife",0,1,0,0.410678953,0.397073299,0.535993159,0.28597638,0.279777884,0.300890625,0.297895014,0.236180857,0.330016553
fish,4182,CAT,DOG,coordinate,coordinate,coordinate,S1,"ANIMAL,ANIMALS,BIRD,BREED,CLAW,FLEA,FLUFFY,FURRY,LAP,MAMMAL,PAT,PAW,PET,PETS,RABBIT,SHED,SLY,STRAY,TAIL,VET,WOLF","cat,dog",0,ANIMAL,"ANIMAL,ANIMALS,BIRD,BREED,CLAW,FLEA,FLUFFY,FURRY,LAP,MAMMAL,PAT,PAW,PET,PETS,RABBIT,SHED,SLY,STRAY,TAIL,VET,WOLF",,"cat,dog","dog,cat",0,0,"cat,paw,dog","FLUFFY,PAW,VET",0,,-0.00037,0.36,0.760945737,1,1,2,1,16,"cat,cougar,vehicle,cab,money,million,plenty,bouillon,food,gourmet,good,manners,bad,unlawful,sheriff,deputy,dog",coordinate,animal,1,8,41,0,0,0,"puppy, beagle, pup, pooch, pit_bull",AA,1,2019-10-28_00h36.39.041,CodenamesAssociation,3.1.5,60,,,1,0,100,54,1,99,0.302452872,"barked, collie, airedale, wag, terrier",0,0.32425708,0.23314586,0,0,0,0,0,0,0,0,0,0,0,CAT-DOG,"pets, puppy, horse, animal, hound","pet, puppy, kitten, mixed-breed, canine, labrador",0,0,0,0.687331736,0.438770831,0.444575518,0.668432415,0.300468326,0.419288099,0.681674719,0.276539534,0.308717936
grass,4184,RABBIT,CARROT,attributive,coordinate,argument,S1,"BUNNY,LETTUCE,STEW","rabbit,carrot",0,BUNNY,STEW,BUNNY,"rabbit,carrot","carrot,rabbit",0,0,"rabbit,furry,hostility,angry,glad,cheerful,amuse,silly,foolish,intelligent,intellect,learn,lesson,student,profession,occupation,pay,debt,expense,expensive,jewel,pebble,waves,tide,laundry,dishes,pot,cobbler,shortcake,dessert,delicious,dinner,sandwich,cauliflower,spinach,lettuce,carrot",,0,,0.046222,0.16,0.363064349,1,1,36,1,5,"rabbit,stew,food,seasoning,tomato,carrot",argument,animal,4,44,1,0,1,0,"hare, possum, bunny, pig, monkey",AA,1,2019-10-28_00h36.39.041,CodenamesAssociation,3.1.5,60,,,1,0,100,22,1,99,0.412297183,"fox, mitten, pooh, tum, tickleson",0,0.19459134,0.19941248,0,0,0,0,0,0,0,0,0,0,0,RABBIT-CARROT,"celery, onion, goat, squirrel, bunny","bunny, rat, radish, stick, pig",0,0,0,0.429384232,0.428389013,0.428101093,0.423777372,0.316363305,0.393077165,0.31468156,0.168081045,0.175184041
trees,6783,BEAR,FOREST,locative,locative,locative ,S1,"TREE,WILDERNESS,WOODS","bear,forest",0,WILDERNESS,"TREE,WOODS","TREE,WOODS","bear,forest","forest,wilderness,bear",0,0,"bear,vet,pet,puppy,handsome,attractive,woman,child,tantrum,upset,glad,cheerful,amuse,silly,foolish,intelligent,intellect,learn,lesson,student,profession,occupation,pay,debt,expense,expensive,jewel,pebble,waves,tide,laundry,dishes,pot,stem,maple,elm,timber,forest",,0,,0.124692,0.18,0.197924912,1,2,37,1,15,"bear,huge,husky,mister,grandpa,chapel,honesty,truthful,gourmet,food,seasoning,tomato,berry,orchard,tree,forest",locative ,animal,0,2,1,47,0,0,"wolf, grizzly, tiger, wildlife, woodlands",AA,1,2019-10-28_00h36.39.041,CodenamesAssociation,3.1.5,60,,,1,0,100,64,1,99,0.965317602,"smokey, grizzly, niaoniao, thickset, beefsteak",0,0.13966653,0.4835387,0,0,0,0,0,0,0,0,0,0,0,BEAR-FOREST,"mountain, deer, wildlife, grizzly, habitat","woods, trees, woodland, forestry, bearing",0,1,0,0.348988056,0.35332334,0.687971115,0.207104176,0.260538667,0.47028631,0.237432748,0.24782531,0.521113753
glass,3116,MILK,COOKIE,locative,coordinate,coordinate,S1,CHOCOLATE,"milk,cookie",0,CHOCOLATE,CHOCOLATE,CHOCOLATE,"milk,cookie","cookie,milk",0,0,"milk,cool,chill,frost,frosted,dessert,cookie",,0,,0.055588,0.34,0.267886937,1,1,6,1,9,"milk,beverage,thirst,drink,slurp,food,gourmet,delicious,pudding,cookie",coordinate,food,0,3,38,7,0,2,"chocolate, ice_cream, cereal, yogurt, strawberry_yogurt",AA,1,2019-10-28_00h36.39.041,CodenamesAssociation,3.1.5,60,,,1,0,100,59,1,99,0.582263875,"yogurt, cheese, fondue, butter, dairy",0,0.21983342,0.1939753,0,0,0,0,0,0,0,0,0,0,0,MILK-COOKIE,"butter, chocolate, cheese, peanut, cream","butter, dairy, biscuits, chocolate-chip, bread",0,0,0,0.445562363,0.513503075,0.38869822,0.398912817,0.345294803,0.31865257,0.263830125,0.270486593,0.212948993
white,3048,SANTA,BEARD,attributive,attributive,attributive,S1,,"santa,beard",0,,,,"santa,toys,bear,grizzly,beard","beard,santa",0,0,"santa,untrue,perjury,unlawful,handcuffs,sheriff,lieutenant,commander,marine,reef,shore,pebble,jewel,expensive,inexpensive,wager,owe,occupation,profession,student,lesson,learn,intellect,intelligent,foolish,silly,amuse,cheerful,glad,upset,weep,child,female,lady,sexy,cuddle,cat,whiskers,beard",,0,,-0.000912,0.12,0.178395554,4,1,38,1,10,"santa,untruthful,bad,manners,good,christian,chapel,grandpa,husband,he,beard",attributive,people,45,3,1,0,1,0,"mustache, goatee, facial_hair, sideburns, handlebar_mustache",AA,1,2019-10-28_00h36.39.041,CodenamesAssociation,3.1.5,60,,,1,0,100,7,1,99,0.266699935,"antonio, alamo, mexicans, mexican, texans",0,0.11733683,0.2478485,0,0,0,0,0,0,0,0,0,0,0,SANTA-BEARD,"claus, clara, hair, mustache, cruz","mustache, goatee, claus, sideburns, wig",0,0,0,0.341570199,0.307522207,0.418779403,0.161103413,0.154426247,0.382033765,0.085842945,0.117732748,0.303381503
toast,6534,KNIFE,BUTTER,argument,locative,argument,S1,SPREAD,"knife,butter",0,,SPREAD,,"knife,butter","butter,knife",0,0,"knife,sword,scissors,operation,infection,flu,kleenex,sob,upset,glad,cheerful,amuse,silly,foolish,intelligent,intellect,learn,lesson,student,profession,occupation,pay,debt,expense,expensive,jewel,pebble,waves,tide,laundry,dishes,pot,recipe,cheese,butter",,0,,-0.001336,0.25,0.295922875,1,1,34,1,14,"knife,dagger,war,disagreement,despise,honesty,truthful,gourmet,food,broth,vegetable,crops,grain,bread,butter",argument,instrument,3,44,1,1,0,1,"Using_pastry_blender, serrated_bread, potato_masher, inch_serrated_blade, small_saucepan_melt",AA,1,2019-10-28_00h36.39.041,CodenamesAssociation,3.1.5,60,,,1,0,100,21,1,99,0.753667932,"fried, broilded, cheese, croutons, slices",0,0.07126218,0.34525177,0,0,0,0,0,0,0,0,0,0,0,KNIFE-BUTTER,"bread, spoon, cheese, melted, pastry","bread, meat, loaf, blade, cheese",0,0,0,0.483358115,0.365366369,0.542036593,0.329581231,0.293874264,0.546880364,0.320083976,0.169631958,0.507335365
paddles,7098,BOAT,RIVER,attributive,locative,locative ,S1,"BAY,CANAL,CANOE,CHANNEL,DOWNSTREAM,FISH,GULLY,MOAT,OCEAN,RAFT,SEA,UPSTREAM,WATER","boat,river",0,CANOE,CANOE,"CANOE,FISH,OCEAN,WATER","boat,canoe,river","river,boat",0,0,"boat,lake,creek,river",,0,,0.22228,0.28,0.441823721,2,1,3,1,4,"boat,dock,water,brook,river",locative ,transport,2,2,0,45,1,0,"canoe, lake, pontoon, creek, kayak",AA,1,2019-10-28_00h36.39.041,CodenamesAssociation,3.1.5,60,,,1,0,100,72,1,99,0.781984308,"downstream, steamboat, riverbank, rapids, keelboats",0,0.43825686,0.26463598,0,0,0,0,0,0,0,0,0,0,0,BOAT-RIVER,"ships, fishing,ferry, vessel, waters","canoe, lake, creek, barge, shore",0,0,0,0.607355893,0.562809825,0.451059639,0.314534903,0.424562067,0.27126652,0.334703743,0.18458955,0.010713091
birthday,3484,CAKE,PARTY,attributive,temporal,temporal,S1,"BIRTHDAY,DECORATE,DECORATION,GOOD,HOSTESS","cake,party",1,BIRTHDAY,BIRTHDAY,"BIRTHDAY,GOOD","cake,party","party,cake",1,1,"cake,dessert,frosted,frost,chill,cool,beverage,brandy,booze,intoxicate,party",,0,,0.096058,0.16,0.16080983,1,1,10,1,9,"cake,dessert,shortcake,spicy,food,slurp,drink,pub,booze,party",temporal,food,3,4,5,13,25,2,"dessert, mad_hatter_tea, Spread_frosting, shamrock_cookies, dainty_sandwiches",AA,1,2019-10-28_00h36.39.041,CodenamesAssociation,3.1.5,60,,,1,0,100,95,1,99,0.651988339,"purged, dixiecrats, centralism, carmine, tuba",0,0.3318351,0.37564388,0,0,0,0,0,0,1,0,1,1,1,CAKE-PARTY,"dinner, democratic, chocolate, dessert, recipe","birthday, dessert, dinner, biscuits, wedding",0,1,0,0.439872772,0.575305521,0.52148658,0.262778401,0.428723991,0.316132635,0.114147641,0.394276202,0.287813723
light,6399,LAMP,NIGHT,attributive,temporal,temporal,S1,FLASHLIGHT,"lamp,flashlight,night",1,,FLASHLIGHT,,"lamp,light,dark,night","night,darkness,light,lamp",1,1,"lamp,candle,blaze,heater,cool,beverage,brandy,rum,throw up,disgusting,nasty,horrible,scary,scream,holler,speak,in,closet,off,night",,0,,-0.000619,0.26,0.114455968,3,3,19,2,4,"lamp,light,blinds,dawn,night",temporal,furniture,2,5,3,4,36,0,"evening, Advent_candle, Always_unplug, afternoon, candle",AA,1,2019-10-28_00h36.39.041,CodenamesAssociation,3.1.5,60,,,1,0,100,99,1,99,0.134749717,"midnight, sleep, awake, sleeping, tonight",0,0.33695915,0.103139475,1,0,1,1,0,0,1,0,0,1,0,LAMP-NIGHT,"lights, evening, room, lit, candle","evening, lights, day, candle, morning",1,1,0,0.457383901,0.574997544,0.493303806,0.276393354,0.471389383,0.265482783,0.170537591,0.415473938,0.399814337
rain,7482,BIRD,WORM,idiosyncratic,idiosyncratic,argument,S1,,"bird,worm",0,,,,"bird,bath,soap,slimy,worm","worm,bird",0,0,"bird,wings,plane,pedal,halt,hamper,laundry,tide,seashore,reef,lake,pole,worm",,0,,-0.002202,0.09,0.325187624,4,1,12,1,17,"bird,canary,robin,ketchup,tomato,seasoning,food,gourmet,good,manners,bad,unlawful,sheriff,deputy,vet,animal,snail,worm",argument,animal,2,39,3,3,3,0,"insect, squirrel, beetle, dragonfly, robin",AA,1,2019-10-28_00h36.39.041,CodenamesAssociation,3.1.5,60,,,1,0,100,32,1,99,0.696909637,"beak, feathers, preen, eagle, fluffing",0,0.14243186,0.13500753,0,0,0,0,0,0,0,0,0,0,0,BIRD-WORM,"virus, flu, avian, infected, influenza","insect, virus, own, avian, creature",0,0,0,0.45354557,0.373773932,0.327588528,0.322230458,0.316511393,0.226580366,0.241014957,0.169203654,0.088457644
pumpkin,11801,PIE,THANKSGIVING,attributive,temporal,temporal,S1,FOOD,"pie,food,thanksgiving",0,FOOD,FOOD,FOOD,"pie,bake,chicken,turkey,thanksgiving","thanksgiving,food,apple,pie",0,0,"pie,cake,delicious,dinner,meal,thanksgiving",,0,,0.067723,0.36,0.157521531,4,3,5,2,3,"pie,baker,food,thanksgiving",temporal,food,3,2,3,2,40,0,"cake, pea_supper, turkey_stuffing_cranberry_sauce, pumpkin_chiffon, feast",AA,1,2019-10-28_00h36.39.041,CodenamesAssociation,3.1.5,60,,,1,0,100,89,1,99,0.390702639,"salad, sauce, dessert, chives, dishes",0,0.43822443,0.27381268,0,0,0,0,0,1,0,0,0,0,0,PIE-THANKSGIVING,"cake, pumpkin, dessert, holidays, meal","cakes, banoffee, meal, shoofly, celebration",1,0,1,0.351153642,0.535090446,0.400590748,0.306809664,0.492929369,0.405059516,0.295966625,0.5898996,0.316564798
liquor,3999,BEER,WINE,hierarchical,hierarchical,coordinate,S1,"ALCOHOL,ALE,BARREL,BOTTLE,CHAMPAGNE,COOLER,DRINK,DRUNK,FLASK,GLASS,JUG,LIQUOR,WHISKEY","beer,wine",1,"ALCOHOL,BOTTLE,CHAMPAGNE,DRINK,DRUNK","ALE,DRINK,DRUNK","ALCOHOL,DRINK,DRUNK,GLASS","beer,wine","wine,beer",0,0,"beer,gin,booze,wine",,0,,0.180095,0.85,0.621769547,1,1,3,1,3,"beer,pub,brandy,wine",coordinate,food,0,3,41,2,2,2,"lager, ros, chardonnay, craft_brews, vino",AA,1,2019-10-28_00h36.39.041,CodenamesAssociation,3.1.5,60,,,1,0,100,51,1,99,0.721044846,"whiskey, vodka, beverage, liquor, drinks",1,0.6000992,0.51978606,0,0,0,0,1,0,1,0,0,0,0,BEER-WINE,"drinks, bottle, champagne, tasting, beverage","lager, drinks, whiskey, beverage, liquor",0,1,0,0.690175653,0.653738022,0.62614131,0.597312868,0.555448055,0.502774596,0.582570553,0.57628417,0.432443619
bunny,2503,RABBIT,HOLE,coordinate,locative,locative ,S1,"FOX,MOLE","rabbit,hole",0,MOLE,FOX,,"rabbit,fox,hole","hole,rabbit",0,0,"rabbit,furry,hostility,angry,glad,cheerful,amuse,silly,foolish,intelligent,intellect,learn,lesson,student,profession,occupation,pay,debt,expense,expensive,jewel,pebble,waves,tide,laundry,dishes,pot,stem,seed,soil,hole",,0,,-0.002437,0.36,0.209241241,2,1,30,1,9,"rabbit,stew,food,slurp,drink,thirst,water,pool,tie,hole",locative ,animal,0,2,2,45,0,1,"puking_O'Hair, makeable_putt, fox, greenside_trap, squirrel",AD,1,2019-10-28_18h23.27.704,CodenamesAssociation,3.1.5,60,r,2.874000072,1,0,100,76,1,99,0.011039249,"tum, wili, wasawusu, badamin, mek",0,0.64403373,0.095203355,0,0,0,0,0,0,0,0,0,0,0,RABBIT-HOLE,"putt, birdie, par-5, woods, rat, mouse","bunny, hidey, rat, hare, pigeon",0,1,0,0.537640929,0.707942247,0.391688496,0.376385987,0.553567171,0.274888903,0.276012063,0.570272326,0.091118313
sail,2934,SHIP,SEA,attributive,locative,locative ,S1,"ANCHOR,BOAT,CAPTAIN,HARBOR,MARINE,MARINES,NAVIGATOR,OCEAN,SAILING,SAILOR,VOYAGE,WATER,YACHT","ship,sea",1,BOAT,"OCEAN,WATER","BOAT,OCEAN,WATER","ship,sea","sea,boat,ship",0,0,"ship,harbor,reef,sea",,0,,0.257384,0.43,0.420012265,1,2,3,1,2,"ship,harbor,sea",locative ,transport,0,2,1,45,0,2,"vessel, ocean, freighter, Spanish_galleons, boat",AD,1,2019-10-28_18h23.27.704,CodenamesAssociation,3.1.5,60,,,1,0,100,77,1,99,0.385539104,"decks, mast, sailor, rigging, sea",1,0.5756948,0.32448876,0,0,0,0,1,0,1,0,0,0,0,SHIP-SEA,"vessels, ocean, boats, waters, navy","oceans, vessels, warship, boats, shore",0,0,0,0.601386428,0.663241386,0.517537415,0.390686303,0.580553949,0.335899144,0.508449554,0.626594067,0.401994914
student,7847,BOY,SCHOOL,attributive,locative,locative ,S1,"BULLY,CHILD,FRIEND,NERD","boy,friend,school",0,"CHILD,FRIEND","BULLY,CHILD,FRIEND,NERD","CHILD,FRIEND","boy,friend,buddy,system,school","school,child,boy",0,0,"boy,guy,woman,child,tantrum,upset,glad,cheerful,amuse,silly,foolish,intelligent,intellect,learn,lesson,school",,0,,0.133627,0.17,0.325042307,4,2,15,2,13,"boy,arrogant,despise,honesty,truthful,gourmet,food,bouillon,plenty,much,money,fee,text,school",locative ,people,0,1,2,46,0,1,"girl, teenager, elementary, kindergartner, kid",AD,1,2019-10-28_18h23.27.704,CodenamesAssociation,3.1.5,60,,,1,0,100,67,1,99,0.89534795,"octobers, flyspecks, tercanbury, snatch, schoolhouse",0,0.30971694,0.6055627,0,0,0,0,0,0,0,0,0,0,0,BOY-SCHOOL,"girl, teacher, parents, kids, students","girls, kids, teacher, lad, headmaster",1,0,0,0.569215,0.54023093,0.64389056,0.247726262,0.299854577,0.507600844,0.379664212,0.350305915,0.613064766
shop,3466,WOMAN,PURSE,attributive,hierarchical,attributive,S1,"GIRL,HANDBAG,POCKETBOOK","woman,handbag,purse",0,"GIRL,HANDBAG,POCKETBOOK","GIRL,HANDBAG,POCKETBOOK",GIRL,"woman,love,hug,hold,carry,purse","purse,handbag,woman",0,0,"woman,child,tantrum,upset,glad,cheerful,amuse,silly,foolish,intelligent,intellect,learn,lesson,assignment,desk,backpack,handbag,purse",,0,,0.108332,0.51,0.285421014,5,2,17,2,16,"woman,her,comb,shears,jigsaw,lumber,tree,orchard,berry,tomato,seasoning,food,bouillon,plenty,much,money,purse",attributive,people,44,2,4,0,0,0,"man, girl, handbag, wallet, teenage_girl",AD,1,2019-10-28_18h23.27.704,CodenamesAssociation,3.1.5,60,,,1,0,100,17,1,99,0.103941181,"blackwell, wombe, malevolently, husband, yong",0,0.18394542,0.12131762,0,0,0,0,0,0,0,0,0,0,0,WOMAN-PURSE,"her, girl, man, she, mother","man, lady, handbag, girl, woman, women",0,0,0,0.413302541,0.404334456,0.384125948,0.172641635,0.20387879,0.246796265,0.17678152,0.282978565,0.117913708
tendon,4314,BONE,MUSCLE,coordinate,coordinate,coordinate,S1,"ARM,BODY,HARD,JOINT,LEG,SHOULDER,TISSUE","bone,muscle",0,JOINT,"BODY,LEG","ARM,BODY,HARD,TISSUE","bone,muscle","muscle,bone",0,0,"bone,sprain,injury,stab,operation,infection,flu,kleenex,sob,upset,glad,cheerful,amuse,silly,foolish,intelligent,intellect,learn,lesson,student,profession,occupation,pay,debt,expense,expensive,jewel,pebble,waves,tide,laundry,dishes,pot,cobbler,shortcake,pudding,frosting,frost,chill,warm,heater,blaze,fuel,powerful,muscle",,0,,0.194074,0.49,0.497934788,1,1,44,1,16,"bone,marrow,sparrow,robin,ketchup,tomato,seasoning,food,gourmet,truthful,honesty,chapel,grandpa,uncle,man,courage,muscle",coordinate,body_part,4,1,41,2,0,2,"cartilage, tendon, multifidus, joints_ligaments, pectoralis_major",AD,1,2019-10-28_18h23.27.704,CodenamesAssociation,3.1.5,60,,,1,0,100,52,1,99,0.987297781,"extensor, tendons, flexor, biceps, skeletal",1,0.58691716,0.48351783,0,0,0,0,1,1,0,0,0,0,0,BONE-MUSCLE,"tissue, cartilage, thigh, calf, tendon","tissue, tendon, skeletal, cartilage, marrow",1,1,1,0.586361468,0.554776073,0.624776483,0.498499632,0.527141094,0.611158311,0.497927219,0.44826901,0.508229852
crib,3999,BABY,CRADLE,locative,coordinate,locative ,S1,"BASSINET,CRIB,CUDDLE","baby,cradle",1,"CRIB,CUDDLE",CUDDLE,"CRIB,CUDDLE","baby,cuddle,cradle","cradle,baby",1,1,"baby,kid,weep,cradle",,0,,0.204499,0.45,0.294499516,2,1,3,1,1,"baby,cradle",locative ,people,2,0,3,45,0,0,"newborn, infant, toddler, bassinette, swaddling_blanket",AD,1,2019-10-28_18h23.27.704,CodenamesAssociation,3.1.5,60,,,1,0,100,70,1,99,0.764727587,"newborn, bassinet, womb, infant, pediatrician",0,0.52802193,0.31245223,0,0,0,0,0,0,1,0,1,0,1,BABY-CRADLE,"newborn, infant, child, unborn, birth, girl","newborn, infant, toddler, child, mother",0,0,0,0.521579146,0.585283339,0.522397637,0.351930141,0.376540244,0.350332737,0.214164883,0.37436384,0.265054703
pray,10732,CHURCH,SUNDAY,locative,temporal,temporal,S1,PSALM,"church,sunday",0,,PSALM,,"church,sunday","sunday,church",0,0,"church,christian,prayer,hymn,choir,sing,yell,terror,ghoul,crude,yuck,throw up,rum,brandy,beverage,cool,chill,frost,frosted,dessert,baker,bake,stove,above,leap,start,semester,week,sunday",,1,,-0.001528,0.58,0.165411428,1,1,28,1,14,"church,protestant,christian,truthful,gourmet,food,bouillon,plenty,much,money,fee,text,lesson,tuesday,sunday",temporal,building,1,1,1,0,47,0,"baptist, congregation, parishioners, anglican, christian",AD,1,2019-10-28_18h23.27.704,CodenamesAssociation,3.1.5,60,,,1,0,100,80,1,99,0.15121852,"catholic, anabaptists, zwinglians, zwing, rebaptizers",0,0.3915444,0.28112918,0,1,0,0,0,0,0,0,0,0,0,CHURCH-SUNDAY,"Saturday, Friday, Monday, Thursday, Wednesday, Tuesday, weekend, atholic","Saturday, pastor, chapel, catholic, congregation",0,0,0,0.468533576,0.456240892,0.397722602,0.311837584,0.354292452,0.366648823,0.288734019,0.338868946,0.216305166
may,8100,FLOWER,SPRING,temporal,temporal,attributive,S1,"BLOOM,BLOSSOM,BUTTERFLY,FRESH,SUN","flower,spring",0,SUN,"BLOOM,BLOSSOM",SUN,"flower,blossom,spring","spring,flower",0,0,"flower,stem,pot,dishes,laundry,tide,seashore,hawaii,spring",,0,,0.056778,0.24,0.243925169,2,1,8,1,13,"flower,petals,tulip,ketchup,tomato,seasoning,oregano,tapioca,tangy,thirst,water,harbor,cruise,spring",attributive,plant,1,2,3,0,44,0,"bloomed_profusely, autumn, blooming_bulbs, apple_blossoms, daffodils_tulips",AD,1,2019-10-28_18h23.27.704,CodenamesAssociation,3.1.5,60,,,1,0,100,97,1,99,0.633457614,"petals, bloom, bluebonnets, pistil, pollen",0,0.09539067,0.40637866,0,0,0,0,0,0,0,0,0,0,0,FLOWER-SPRING,"autumn, summer, winter, garden, blossoms","autumn, blossoms, summer, blooming, winter",0,0,0,0.467693895,0.2095851,0.21620667,0.342937529,0.213234246,0.328234822,0.34325543,0.141426638,0.40471223
gender,10432,GIRL,BOY,hierarchical,hierarchical,coordinate,S1,"BABY,BAD,CHILD,CUDDLE,CUTE,DATE,FRIEND,GAL,GUY,JEWISH,MATE,PARTNER,SCOUT","girl,boy",0,"CHILD,CUTE,FRIEND,SCOUT","FRIEND,GUY",FRIEND,"girl,boy","boy,girl",0,0,"girl,women,gorgeous,boy",,0,,0.111045,0.53,0.854327142,1,1,3,1,17,"girl,her,comb,shears,jigsaw,lumber,tree,orchard,berry,tomato,seasoning,food,gourmet,truthful,honesty,despise,arrogant,boy",coordinate,people,0,2,47,0,1,0,"teenager, woman, man, mother, daughter",AD,1,2019-10-28_18h23.27.704,CodenamesAssociation,3.1.5,60,,,1,0,100,40,1,99,0.258928844,"ported, mudslinger, fended, snatch, sugared",0,0.22322036,0.0959706,0,0,0,0,0,0,0,0,0,0,0,GIRL-BOY,"woman, teenager, kid, child, mother","kid, lad, teenager, child, woman",0,0,0,0.861807704,0.473927021,0.431370348,0.773345947,0.257576972,0.184795558,0.827289104,0.221257731,0.132772505
